Condition,PromiseStage,Stage,accuracy,avg_rt,count_decision_sequence,count_loop1,count_trial_sequence,font_size,height,init_time,payoff,response,rt,subject_nr,synth_backend,tTrajectory,time_experiment,width,xTrajectory,yTrajectory
"Promise","Wie oft werden Sie die Hälfte zurückgeben?","Promise","1","undefined","NA","0","0","60","1080","511","NA","1","2358","0","legacy","[11, 21, 31, 41, 51, 61, 71, 81, 91, 101, 111, 121, 131, 141, 151, 161, 171, 181, 191, 201, 211, 221, 231, 241, 251, 261, 271, 281, 291, 301, 311, 321, 331, 341, 351, 361, 371, 381, 391, 401, 411, 421, 431, 441, 451, 461, 471, 481, 491, 501, 511, 521, 531, 541, 551, 561, 571, 581, 591, 601, 611, 621, 631, 641, 651, 661, 671, 681, 691, 701, 711, 721, 731, 741, 751, 761, 771, 781, 791, 801, 811, 821, 831, 841, 851, 861, 871, 881, 891, 901, 911, 921, 931, 941, 951, 961, 971, 981, 991, 1001, 1011, 1021, 1031, 1041, 1051, 1061, 1071, 1081, 1091, 1101, 1111, 1121, 1131, 1141, 1151, 1161, 1171, 1181, 1191, 1201, 1211, 1221, 1231, 1241, 1251, 1261, 1271, 1281, 1291, 1301, 1311, 1321, 1331, 1341, 1351, 1361, 1371, 1381, 1391, 1401, 1411, 1421, 1431, 1441, 1451, 1461, 1471, 1481, 1491, 1501, 1511, 1521, 1531, 1541, 1551, 1561, 1571, 1581, 1591, 1601, 1611, 1621, 1631, 1641, 1651, 1661, 1671, 1681, 1691, 1701, 1711, 1721, 1731, 1741, 1751, 1761, 1771, 1781, 1791, 1801, 1811, 1821, 1831, 1841, 1851, 1861, 1871, 1881, 1891, 1901, 1911, 1921, 1931, 1941, 1951, 1961, 1971, 1981, 1991, 2001, 2011, 2021, 2031, 2041, 2051, 2061, 2071, 2081, 2091, 2101, 2111, 2121, 2131, 2141, 2151, 2161, 2171, 2181, 2191, 2201, 2211, 2221, 2231, 2241, 2251, 2261, 2271, 2281, 2291, 2301, 2311, 2321, 2331, 2341, 2351]","1104","1920","[960, 960, 960, 960, 960, 960, 960, 960, 960, 960, 960, 960, 960, 960, 960, 960, 960, 960, 960, 960, 960, 960, 960, 960, 960, 960, 960, 960, 960, 960, 960, 960, 960, 960, 960, 960, 960, 960, 960, 959, 958, 957, 952, 949, 947, 944, 939, 938, 937, 934, 926, 922, 917, 912, 903, 896, 890, 883, 870, 866, 858, 852, 835, 826, 817, 804, 788, 776, 770, 762, 752, 745, 741, 733, 719, 710, 703, 696, 685, 679, 675, 668, 652, 644, 632, 624, 605, 596, 587, 580, 568, 560, 552, 543, 522, 509, 498, 485, 471, 466, 461, 452, 452, 452, 452, 452, 452, 452, 452, 452, 452, 452, 452, 452, 452, 452, 452, 452, 452, 452, 452, 452, 452, 452, 452, 452, 452, 452, 452, 452, 452, 452, 452, 452, 452, 452, 451, 451, 450, 450, 450, 450, 450, 450, 450, 450, 450, 450, 450, 450, 450, 448, 448, 447, 442, 438, 434, 428, 414, 403, 393, 383, 363, 355, 347, 340, 325, 317, 308, 302, 283, 273, 269, 260, 252, 247, 244, 241, 239, 238, 238, 238, 237, 237, 235, 235, 230, 227, 223, 220, 216, 213, 211, 210, 207, 206, 205, 205, 203, 202, 202, 202, 201, 201, 201, 201, 201, 201, 201, 201, 201, 201, 201, 201, 201, 201, 201, 201, 201, 201, 201, 201, 201, 201, 201, 201, 201, 201, 201, 201, 201, 201, 201, 201, 201]","[1010, 1010, 1010, 1010, 1010, 1010, 1010, 1010, 1010, 1010, 1010, 1010, 1010, 1010, 1010, 1010, 1010, 1010, 1010, 1010, 1010, 1010, 1010, 1010, 1010, 1010, 1010, 1010, 1010, 1010, 1010, 1010, 1010, 1010, 1010, 1010, 1010, 1010, 1010, 1008, 1007, 1002, 989, 983, 977, 971, 960, 956, 950, 943, 923, 914, 904, 896, 878, 867, 855, 842, 816, 804, 787, 772, 735, 721, 705, 683, 650, 630, 619, 606, 583, 568, 556, 541, 515, 501, 488, 476, 455, 442, 431, 418, 391, 380, 362, 352, 332, 324, 318, 313, 305, 301, 298, 295, 287, 283, 280, 275, 268, 263, 260, 261, 259, 259, 259, 259, 259, 259, 259, 259, 259, 259, 259, 259, 259, 259, 259, 259, 259, 259, 259, 259, 259, 259, 259, 259, 259, 259, 259, 259, 259, 259, 259, 259, 259, 259, 259, 259, 259, 259, 259, 259, 259, 259, 259, 259, 258, 258, 256, 256, 253, 252, 251, 249, 241, 237, 232, 226, 213, 204, 196, 187, 170, 162, 154, 148, 134, 127, 121, 116, 105, 100, 97, 93, 88, 84, 83, 82, 80, 79, 79, 79, 78, 78, 78, 77, 77, 76, 74, 73, 72, 72, 72, 72, 72, 72, 72, 72, 72, 72, 72, 72, 72, 72, 72, 72, 72, 72, 72, 72, 72, 72, 72, 72, 72, 72, 72, 72, 72, 72, 72, 72, 72, 72, 72, 72, 72, 72, 72, 72, 72, 72, 72, 72, 72]"
Cond,DecisionB,Stage,accuracy,avg_rt,count_decision_sequence,count_loop1,count_trial_sequence,font_size,height,init_time,payoff,response,rt,subject_nr,synth_backend,tTrajectory,time_experiment,width,xTrajectory,yTrajectory
"NoTrust","Teilnehmer A hat Ihnen keine 2 Punkte übermittelt.","Payback","1","undefined","0","0","0","60","1080","511","0","1","2358","0","legacy","[11, 21, 31, 41, 51, 61, 71, 81, 91, 101, 111, 121, 131, 141, 151, 161, 171, 181, 191, 201, 211, 221, 231, 241, 251, 261, 271, 281, 291, 301, 311, 321, 331, 341, 351, 361, 371, 381, 391, 401, 411, 421, 431, 441, 451, 461, 471, 481, 491, 501, 511, 521, 531, 541, 551, 561, 571, 581, 591, 601, 611, 621, 631, 641, 651, 661, 671, 681, 691, 701, 711, 721, 731, 741, 751, 761, 771, 781, 791, 801, 811, 821, 831, 841, 851, 861, 871, 881, 891, 901, 911, 921, 931, 941, 951, 961, 971, 981, 991, 1001, 1011, 1021, 1031, 1041, 1051, 1061, 1071, 1081, 1091, 1101, 1111, 1121, 1131, 1141, 1151, 1161, 1171, 1181, 1191, 1201, 1211, 1221, 1231, 1241, 1251, 1261, 1271, 1281, 1291, 1301, 1311, 1321, 1331, 1341, 1351, 1361, 1371, 1381, 1391, 1401, 1411, 1421, 1431, 1441, 1451, 1461, 1471, 1481, 1491, 1501, 1511, 1521, 1531, 1541, 1551, 1561, 1571, 1581, 1591, 1601, 1611, 1621, 1631, 1641, 1651, 1661, 1671, 1681, 1691, 1701, 1711, 1721, 1731, 1741, 1751, 1761, 1771, 1781, 1791, 1801, 1811, 1821, 1831, 1841, 1851, 1861, 1871, 1881, 1891, 1901, 1911, 1921, 1931, 1941, 1951, 1961, 1971, 1981, 1991, 2001, 2011, 2021, 2031, 2041, 2051, 2061, 2071, 2081, 2091, 2101, 2111, 2121, 2131, 2141, 2151, 2161, 2171, 2181, 2191, 2201, 2211, 2221, 2231, 2241, 2251, 2261, 2271, 2281, 2291, 2301, 2311, 2321, 2331, 2341, 2351]","1104","1920","[960, 960, 960, 960, 960, 960, 960, 960, 960, 960, 960, 960, 960, 960, 960, 960, 960, 960, 960, 960, 960, 960, 960, 960, 960, 960, 960, 960, 960, 960, 960, 960, 960, 960, 960, 960, 960, 960, 960, 959, 958, 957, 952, 949, 947, 944, 939, 938, 937, 934, 926, 922, 917, 912, 903, 896, 890, 883, 870, 866, 858, 852, 835, 826, 817, 804, 788, 776, 770, 762, 752, 745, 741, 733, 719, 710, 703, 696, 685, 679, 675, 668, 652, 644, 632, 624, 605, 596, 587, 580, 568, 560, 552, 543, 522, 509, 498, 485, 471, 466, 461, 452, 452, 452, 452, 452, 452, 452, 452, 452, 452, 452, 452, 452, 452, 452, 452, 452, 452, 452, 452, 452, 452, 452, 452, 452, 452, 452, 452, 452, 452, 452, 452, 452, 452, 452, 451, 451, 450, 450, 450, 450, 450, 450, 450, 450, 450, 450, 450, 450, 450, 448, 448, 447, 442, 438, 434, 428, 414, 403, 393, 383, 363, 355, 347, 340, 325, 317, 308, 302, 283, 273, 269, 260, 252, 247, 244, 241, 239, 238, 238, 238, 237, 237, 235, 235, 230, 227, 223, 220, 216, 213, 211, 210, 207, 206, 205, 205, 203, 202, 202, 202, 201, 201, 201, 201, 201, 201, 201, 201, 201, 201, 201, 201, 201, 201, 201, 201, 201, 201, 201, 201, 201, 201, 201, 201, 201, 201, 201, 201, 201, 201, 201, 201, 201]","[1010, 1010, 1010, 1010, 1010, 1010, 1010, 1010, 1010, 1010, 1010, 1010, 1010, 1010, 1010, 1010, 1010, 1010, 1010, 1010, 1010, 1010, 1010, 1010, 1010, 1010, 1010, 1010, 1010, 1010, 1010, 1010, 1010, 1010, 1010, 1010, 1010, 1010, 1010, 1008, 1007, 1002, 989, 983, 977, 971, 960, 956, 950, 943, 923, 914, 904, 896, 878, 867, 855, 842, 816, 804, 787, 772, 735, 721, 705, 683, 650, 630, 619, 606, 583, 568, 556, 541, 515, 501, 488, 476, 455, 442, 431, 418, 391, 380, 362, 352, 332, 324, 318, 313, 305, 301, 298, 295, 287, 283, 280, 275, 268, 263, 260, 261, 259, 259, 259, 259, 259, 259, 259, 259, 259, 259, 259, 259, 259, 259, 259, 259, 259, 259, 259, 259, 259, 259, 259, 259, 259, 259, 259, 259, 259, 259, 259, 259, 259, 259, 259, 259, 259, 259, 259, 259, 259, 259, 259, 259, 258, 258, 256, 256, 253, 252, 251, 249, 241, 237, 232, 226, 213, 204, 196, 187, 170, 162, 154, 148, 134, 127, 121, 116, 105, 100, 97, 93, 88, 84, 83, 82, 80, 79, 79, 79, 78, 78, 78, 77, 77, 76, 74, 73, 72, 72, 72, 72, 72, 72, 72, 72, 72, 72, 72, 72, 72, 72, 72, 72, 72, 72, 72, 72, 72, 72, 72, 72, 72, 72, 72, 72, 72, 72, 72, 72, 72, 72, 72, 72, 72, 72, 72, 72, 72, 72, 72, 72, 72]"
"Trust","Teilnehmer A hat Ihnen 2 Punkte übermittelt.","Payback","1","undefined","1","0","0","60","1080","781","5","1","2077","0","legacy","[11, 21, 31, 41, 51, 61, 71, 81, 91, 101, 111, 121, 131, 141, 151, 161, 171, 181, 191, 201, 211, 221, 231, 241, 251, 261, 271, 281, 291, 301, 311, 321, 331, 341, 351, 361, 371, 381, 391, 401, 411, 421, 431, 441, 451, 461, 471, 481, 491, 501, 511, 521, 531, 541, 551, 561, 571, 581, 591, 601, 611, 621, 631, 641, 651, 661, 671, 681, 691, 701, 711, 721, 731, 741, 751, 761, 771, 781, 791, 801, 811, 821, 831, 841, 851, 861, 871, 881, 891, 901, 911, 921, 931, 941, 951, 961, 971, 981, 991, 1001, 1011, 1021, 1031, 1041, 1051, 1061, 1071, 1081, 1091, 1101, 1111, 1121, 1131, 1141, 1151, 1161, 1171, 1181, 1191, 1201, 1211, 1221, 1231, 1241, 1251, 1261, 1271, 1281, 1291, 1301, 1311, 1321, 1331, 1341, 1351, 1361, 1371, 1381, 1391, 1401, 1411, 1421, 1431, 1441, 1451, 1461, 1471, 1481, 1491, 1501, 1511, 1521, 1531, 1541, 1551, 1561, 1571, 1581, 1591, 1601, 1611, 1621, 1631, 1641, 1651, 1661, 1671, 1681, 1691, 1701, 1711, 1721, 1731, 1741, 1751, 1761, 1771, 1781, 1791, 1801, 1811, 1821, 1831, 1841, 1851, 1861, 1871, 1881, 1891, 1901, 1911, 1921, 1931, 1941, 1951, 1961, 1971, 1981, 1991, 2001, 2011, 2021, 2031, 2041, 2051, 2061, 2071]","1104","1920","[960, 960, 960, 960, 960, 960, 960, 960, 960, 960, 960, 960, 960, 960, 960, 960, 960, 960, 960, 960, 960, 960, 960, 960, 960, 960, 960, 960, 960, 960, 960, 960, 960, 960, 960, 960, 960, 960, 959, 959, 959, 959, 959, 959, 959, 959, 959, 959, 959, 959, 959, 959, 959, 959, 959, 959, 959, 959, 959, 959, 958, 958, 958, 958, 958, 958, 956, 955, 955, 955, 955, 955, 954, 954, 954, 952, 951, 951, 950, 950, 950, 950, 948, 947, 946, 946, 942, 940, 938, 936, 932, 930, 928, 926, 920, 917, 916, 913, 905, 901, 899, 896, 889, 885, 879, 873, 859, 853, 846, 841, 831, 825, 819, 813, 803, 797, 793, 790, 780, 777, 773, 769, 760, 754, 748, 742, 728, 721, 714, 709, 694, 687, 682, 674, 657, 646, 634, 622, 598, 581, 571, 561, 544, 535, 529, 522, 506, 499, 491, 484, 472, 470, 466, 462, 453, 451, 445, 441, 425, 419, 408, 397, 375, 360, 346, 329, 292, 272, 261, 247, 230, 224, 218, 213, 205, 198, 194, 190, 185, 182, 181, 180, 178, 178, 177, 175, 175, 175, 175, 175, 174, 174, 174, 174, 174, 174, 174, 174, 174, 174, 174, 174, 174, 174, 174, 174, 174]","[1010, 1010, 1010, 1010, 1010, 1010, 1010, 1010, 1010, 1010, 1010, 1010, 1010, 1010, 1010, 1010, 1010, 1010, 1010, 1010, 1010, 1010, 1010, 1010, 1010, 1010, 1010, 1010, 1010, 1010, 1010, 1010, 1010, 1010, 1010, 1010, 1010, 1010, 1009, 1009, 1008, 1006, 1004, 1003, 1003, 1002, 1000, 998, 998, 997, 997, 995, 995, 994, 992, 992, 991, 991, 989, 988, 985, 985, 982, 980, 978, 977, 973, 971, 969, 967, 964, 962, 960, 957, 951, 946, 942, 937, 930, 928, 926, 923, 918, 912, 906, 900, 887, 881, 874, 867, 853, 845, 837, 828, 811, 801, 796, 787, 771, 762, 755, 747, 728, 718, 707, 695, 669, 658, 647, 635, 613, 600, 587, 575, 551, 538, 527, 518, 499, 492, 486, 479, 465, 457, 447, 441, 422, 412, 403, 395, 375, 365, 356, 344, 323, 310, 298, 287, 267, 256, 250, 242, 230, 226, 222, 219, 210, 208, 205, 201, 197, 195, 194, 192, 189, 188, 187, 186, 181, 180, 176, 175, 171, 170, 166, 164, 153, 146, 143, 137, 129, 126, 121, 117, 112, 109, 108, 107, 106, 104, 103, 103, 101, 101, 99, 97, 97, 97, 95, 95, 95, 95, 95, 95, 95, 95, 95, 95, 95, 95, 95, 95, 95, 95, 95, 95, 95]"
"Trust","Teilnehmer A hat Ihnen 2 Punkte übermittelt.","Payback","1","undefined","2","0","0","60","1080","431","5","1","1526","0","legacy","[11, 21, 31, 41, 51, 61, 71, 81, 91, 101, 111, 121, 131, 141, 151, 161, 171, 181, 191, 201, 211, 221, 231, 241, 251, 261, 271, 281, 291, 301, 311, 321, 331, 341, 351, 361, 371, 381, 391, 401, 411, 421, 431, 441, 451, 461, 471, 481, 491, 501, 511, 521, 531, 541, 551, 561, 571, 581, 591, 601, 611, 621, 631, 641, 651, 661, 671, 681, 691, 701, 711, 721, 731, 741, 751, 761, 771, 781, 791, 801, 811, 821, 831, 841, 851, 861, 871, 881, 891, 901, 911, 921, 931, 941, 951, 961, 971, 981, 991, 1001, 1011, 1021, 1031, 1041, 1051, 1061, 1071, 1081, 1091, 1101, 1111, 1121, 1131, 1141, 1151, 1161, 1171, 1181, 1191, 1201, 1211, 1221, 1231, 1241, 1251, 1261, 1271, 1281, 1291, 1301, 1311, 1321, 1331, 1341, 1351, 1361, 1371, 1381, 1391, 1401, 1411, 1421, 1431, 1441, 1451, 1461, 1471, 1481, 1491, 1501, 1511, 1521]","1104","1920","[960, 960, 960, 960, 960, 960, 960, 960, 960, 960, 960, 960, 960, 960, 960, 960, 960, 960, 960, 960, 960, 960, 960, 960, 960, 960, 960, 960, 960, 960, 960, 960, 960, 960, 960, 958, 958, 956, 952, 948, 946, 943, 937, 935, 932, 930, 922, 914, 906, 898, 881, 870, 861, 851, 829, 819, 805, 798, 782, 776, 769, 759, 745, 739, 734, 728, 716, 708, 702, 695, 671, 656, 638, 614, 578, 555, 536, 520, 491, 479, 468, 455, 421, 409, 394, 382, 355, 344, 331, 320, 299, 293, 285, 280, 274, 272, 268, 264, 256, 253, 249, 245, 238, 234, 233, 231, 225, 223, 219, 217, 209, 207, 203, 199, 196, 195, 192, 192, 191, 191, 191, 191, 190, 190, 189, 189, 188, 188, 188, 188, 188, 188, 188, 188, 188, 188, 188, 188, 188, 188, 188, 188, 188, 188, 188, 188, 188, 188, 188, 188, 188, 188]","[1010, 1010, 1010, 1010, 1010, 1010, 1010, 1010, 1010, 1010, 1010, 1010, 1010, 1010, 1010, 1010, 1010, 1010, 1010, 1010, 1010, 1010, 1010, 1010, 1010, 1010, 1010, 1010, 1010, 1010, 1010, 1010, 1010, 1009, 1005, 1002, 999, 992, 980, 969, 960, 950, 931, 921, 911, 900, 879, 862, 844, 828, 792, 775, 757, 738, 700, 686, 666, 654, 629, 618, 603, 584, 561, 551, 541, 531, 514, 505, 497, 487, 463, 449, 435, 412, 377, 359, 342, 333, 316, 309, 302, 295, 279, 272, 265, 259, 247, 240, 232, 224, 208, 202, 196, 191, 185, 182, 177, 173, 164, 161, 157, 154, 147, 144, 142, 140, 135, 133, 129, 127, 118, 116, 111, 107, 103, 101, 99, 98, 98, 97, 97, 97, 95, 95, 95, 95, 94, 94, 94, 94, 94, 94, 94, 94, 94, 94, 94, 94, 94, 94, 94, 94, 94, 94, 94, 94, 94, 94, 94, 94, 94, 94]"
"Promise","Wie oft werden Sie die Hälfte zurückgeben?","Promise","1","undefined","2","0","1","60","1080","601","5","1","1808","0","legacy","[11, 21, 31, 41, 51, 61, 71, 81, 91, 101, 111, 121, 131, 141, 151, 161, 171, 181, 191, 201, 211, 221, 231, 241, 251, 261, 271, 281, 291, 301, 311, 321, 331, 341, 351, 361, 371, 381, 391, 401, 411, 421, 431, 441, 451, 461, 471, 481, 491, 501, 511, 521, 531, 541, 551, 561, 571, 581, 591, 601, 611, 621, 631, 641, 651, 661, 671, 681, 691, 701, 711, 721, 731, 741, 751, 761, 771, 781, 791, 801, 811, 821, 831, 841, 851, 861, 871, 881, 891, 901, 911, 921, 931, 941, 951, 961, 971, 981, 991, 1001, 1011, 1021, 1031, 1041, 1051, 1061, 1071, 1081, 1091, 1101, 1111, 1121, 1131, 1141, 1151, 1161, 1171, 1181, 1191, 1201, 1211, 1221, 1231, 1241, 1251, 1261, 1271, 1281, 1291, 1301, 1311, 1321, 1331, 1341, 1351, 1361, 1371, 1381, 1391, 1401, 1411, 1421, 1431, 1441, 1451, 1461, 1471, 1481, 1491, 1501, 1511, 1521, 1531, 1541, 1551, 1561, 1571, 1581, 1591, 1601, 1611, 1621, 1631, 1641, 1651, 1661, 1671, 1681, 1691, 1701, 1711, 1721, 1731, 1741, 1751, 1761, 1771, 1781, 1791, 1801]","1104","1920","[960, 960, 960, 960, 960, 960, 960, 960, 960, 960, 960, 960, 960, 960, 960, 960, 960, 960, 960, 960, 960, 960, 960, 960, 960, 960, 960, 960, 960, 960, 960, 960, 960, 960, 960, 960, 960, 960, 960, 960, 960, 960, 960, 960, 960, 959, 959, 957, 956, 955, 954, 951, 951, 950, 949, 947, 946, 943, 942, 935, 931, 929, 925, 919, 917, 913, 907, 896, 889, 881, 873, 850, 840, 829, 822, 802, 793, 787, 779, 765, 758, 752, 745, 730, 725, 715, 710, 698, 692, 687, 680, 664, 656, 648, 638, 616, 605, 595, 582, 560, 547, 534, 524, 504, 493, 486, 477, 463, 458, 450, 445, 434, 428, 423, 416, 405, 399, 394, 389, 380, 378, 374, 370, 360, 353, 348, 343, 328, 323, 318, 308, 298, 293, 288, 283, 276, 271, 268, 262, 254, 249, 245, 243, 238, 236, 234, 233, 230, 227, 224, 223, 220, 217, 215, 214, 209, 207, 205, 202, 200, 198, 197, 196, 196, 195, 195, 195, 195, 195, 195, 195, 195, 195, 195, 195, 195, 195, 195, 195, 195]","[1010, 1010, 1010, 1010, 1010, 1010, 1010, 1010, 1010, 1010, 1010, 1010, 1010, 1010, 1010, 1010, 1010, 1010, 1010, 1010, 1010, 1010, 1010, 1010, 1010, 1010, 1010, 1010, 1010, 1010, 1010, 1010, 1010, 1010, 1010, 1010, 1010, 1010, 1010, 1010, 1010, 1008, 1007, 1002, 999, 995, 992, 986, 982, 979, 977, 972, 971, 968, 965, 961, 959, 955, 950, 937, 931, 926, 921, 910, 906, 900, 892, 877, 868, 858, 850, 830, 820, 811, 805, 788, 779, 772, 762, 745, 738, 729, 720, 701, 693, 682, 674, 658, 650, 640, 632, 612, 601, 589, 575, 542, 527, 513, 496, 464, 447, 430, 415, 390, 380, 372, 363, 350, 345, 339, 334, 324, 319, 314, 310, 300, 295, 291, 288, 280, 277, 272, 268, 255, 247, 240, 234, 217, 212, 207, 201, 192, 187, 183, 179, 172, 167, 163, 156, 148, 144, 140, 138, 134, 133, 131, 130, 127, 125, 123, 122, 119, 118, 116, 115, 111, 109, 108, 106, 104, 104, 102, 102, 102, 101, 101, 101, 101, 101, 101, 101, 101, 101, 101, 101, 101, 101, 101, 101, 101]"
"Trust","Teilnehmer A hat Ihnen 2 Punkte übermittelt.","Payback","1","undefined","3","0","1","60","1080","391","5","1","1452","0","legacy","[11, 21, 31, 41, 51, 61, 71, 81, 91, 101, 111, 121, 131, 141, 151, 161, 171, 181, 191, 201, 211, 221, 231, 241, 251, 261, 271, 281, 291, 301, 311, 321, 331, 341, 351, 361, 371, 381, 391, 401, 411, 421, 431, 441, 451, 461, 471, 481, 491, 501, 511, 521, 531, 541, 551, 561, 571, 581, 591, 601, 611, 621, 631, 641, 651, 661, 671, 681, 691, 701, 711, 721, 731, 741, 751, 761, 771, 781, 791, 801, 811, 821, 831, 841, 851, 861, 871, 881, 891, 901, 911, 921, 931, 941, 951, 961, 971, 981, 991, 1001, 1011, 1021, 1031, 1041, 1051, 1061, 1071, 1081, 1091, 1101, 1111, 1121, 1131, 1141, 1151, 1161, 1171, 1181, 1191, 1201, 1211, 1221, 1231, 1241, 1251, 1261, 1271, 1281, 1291, 1301, 1311, 1321, 1331, 1341, 1351, 1361, 1371, 1381, 1391, 1401, 1411, 1421, 1431, 1441, 1451]","1104","1920","[960, 960, 960, 960, 960, 960, 960, 960, 960, 960, 960, 960, 960, 960, 960, 960, 960, 960, 960, 960, 960, 960, 960, 960, 960, 959, 958, 958, 958, 955, 955, 954, 953, 948, 945, 944, 942, 934, 932, 929, 927, 921, 918, 913, 908, 899, 894, 890, 885, 876, 872, 867, 862, 848, 838, 827, 820, 802, 794, 784, 776, 755, 745, 732, 716, 683, 664, 647, 629, 606, 593, 583, 572, 551, 540, 532, 518, 496, 484, 474, 464, 446, 440, 435, 432, 423, 419, 414, 412, 403, 397, 391, 386, 372, 365, 359, 350, 333, 326, 320, 312, 300, 295, 292, 285, 278, 271, 269, 264, 254, 250, 244, 239, 235, 232, 230, 228, 226, 223, 222, 220, 217, 216, 215, 213, 210, 210, 209, 209, 209, 209, 209, 209, 209, 209, 209, 209, 209, 209, 209, 209, 209, 209, 209, 209]","[1010, 1010, 1010, 1010, 1010, 1010, 1010, 1010, 1010, 1010, 1010, 1010, 1010, 1010, 1010, 1010, 1010, 1010, 1010, 1010, 1010, 1010, 1010, 1010, 1010, 1010, 1010, 1010, 1008, 1004, 1002, 997, 993, 981, 974, 967, 959, 943, 936, 928, 917, 896, 884, 872, 859, 837, 827, 817, 807, 784, 774, 763, 751, 729, 715, 700, 690, 665, 655, 641, 630, 597, 583, 565, 545, 509, 490, 470, 453, 431, 419, 405, 390, 361, 347, 338, 327, 308, 299, 291, 283, 271, 267, 262, 259, 251, 249, 245, 242, 235, 232, 227, 224, 214, 209, 205, 197, 188, 183, 178, 173, 165, 162, 160, 156, 150, 146, 144, 139, 132, 129, 125, 122, 118, 116, 115, 113, 109, 106, 105, 103, 99, 99, 98, 97, 94, 94, 94, 94, 94, 94, 94, 94, 94, 94, 94, 94, 94, 94, 94, 94, 94, 94, 94, 94]"
"Trust","Teilnehmer A hat Ihnen 2 Punkte übermittelt.","Payback","1","undefined","4","0","1","60","1080","391","5","1","1621","0","legacy","[11, 21, 31, 41, 51, 61, 71, 81, 91, 101, 111, 121, 131, 141, 151, 161, 171, 181, 191, 201, 211, 221, 231, 241, 251, 261, 271, 281, 291, 301, 311, 321, 331, 341, 351, 361, 371, 381, 391, 401, 411, 421, 431, 441, 451, 461, 471, 481, 491, 501, 511, 521, 531, 541, 551, 561, 571, 581, 591, 601, 611, 621, 631, 641, 651, 661, 671, 681, 691, 701, 711, 721, 731, 741, 751, 761, 771, 781, 791, 801, 811, 821, 831, 841, 851, 861, 871, 881, 891, 901, 911, 921, 931, 941, 951, 961, 971, 981, 991, 1001, 1011, 1021, 1031, 1041, 1051, 1061, 1071, 1081, 1091, 1101, 1111, 1121, 1131, 1141, 1151, 1161, 1171, 1181, 1191, 1201, 1211, 1221, 1231, 1241, 1251, 1261, 1271, 1281, 1291, 1301, 1311, 1321, 1331, 1341, 1351, 1361, 1371, 1381, 1391, 1401, 1411, 1421, 1431, 1441, 1451, 1461, 1471, 1481, 1491, 1501, 1511, 1521, 1531, 1541, 1551, 1561, 1571, 1581, 1591, 1601, 1611]","1104","1920","[960, 960, 960, 960, 960, 960, 960, 960, 960, 960, 960, 960, 960, 960, 960, 960, 960, 960, 960, 960, 960, 960, 960, 960, 960, 960, 960, 960, 960, 960, 958, 957, 956, 955, 952, 951, 950, 947, 942, 939, 936, 933, 926, 923, 918, 913, 901, 895, 889, 883, 873, 869, 865, 861, 855, 850, 846, 841, 830, 825, 822, 817, 810, 807, 802, 799, 793, 787, 784, 779, 769, 764, 759, 755, 744, 737, 731, 722, 707, 700, 692, 684, 668, 663, 654, 645, 627, 619, 613, 607, 592, 584, 574, 564, 546, 540, 530, 520, 503, 490, 480, 468, 445, 435, 426, 416, 400, 388, 383, 372, 356, 345, 338, 328, 312, 307, 299, 296, 285, 282, 277, 273, 264, 261, 257, 254, 248, 244, 240, 232, 227, 225, 222, 217, 213, 210, 209, 204, 202, 200, 198, 195, 195, 194, 192, 191, 191, 190, 190, 190, 188, 188, 188, 188, 188, 188, 188, 188, 188, 188, 188]","[1010, 1010, 1010, 1010, 1010, 1010, 1010, 1010, 1010, 1010, 1010, 1010, 1010, 1010, 1010, 1010, 1010, 1010, 1010, 1010, 1010, 1010, 1010, 1010, 1010, 1010, 1008, 1005, 1002, 999, 990, 984, 980, 975, 963, 957, 950, 941, 924, 913, 903, 892, 873, 864, 854, 841, 815, 800, 788, 777, 756, 746, 737, 728, 711, 701, 693, 683, 664, 654, 646, 638, 620, 613, 606, 596, 582, 574, 569, 560, 546, 539, 532, 525, 511, 502, 495, 484, 468, 461, 455, 448, 434, 429, 422, 414, 396, 390, 385, 378, 367, 362, 356, 351, 339, 333, 325, 319, 307, 298, 290, 282, 266, 260, 254, 248, 237, 229, 226, 218, 206, 201, 195, 190, 182, 178, 174, 172, 165, 164, 160, 158, 151, 149, 146, 145, 140, 137, 135, 129, 126, 125, 123, 120, 118, 117, 116, 114, 113, 111, 111, 109, 108, 107, 106, 105, 105, 105, 105, 104, 103, 103, 103, 103, 103, 103, 103, 103, 103, 103, 103]"
"Trust","Teilnehmer A hat Ihnen 2 Punkte übermittelt.","Payback","1","undefined","5","0","1","60","1080","601","5","1","1885","0","legacy","[11, 21, 31, 41, 51, 61, 71, 81, 91, 101, 111, 121, 131, 141, 151, 161, 171, 181, 191, 201, 211, 221, 231, 241, 251, 261, 271, 281, 291, 301, 311, 321, 331, 341, 351, 361, 371, 381, 391, 401, 411, 421, 431, 441, 451, 461, 471, 481, 491, 501, 511, 521, 531, 541, 551, 561, 571, 581, 591, 601, 611, 621, 631, 641, 651, 661, 671, 681, 691, 701, 711, 721, 731, 741, 751, 761, 771, 781, 791, 801, 811, 821, 831, 841, 851, 861, 871, 881, 891, 901, 911, 921, 931, 941, 951, 961, 971, 981, 991, 1001, 1011, 1021, 1031, 1041, 1051, 1061, 1071, 1081, 1091, 1101, 1111, 1121, 1131, 1141, 1151, 1161, 1171, 1181, 1191, 1201, 1211, 1221, 1231, 1241, 1251, 1261, 1271, 1281, 1291, 1301, 1311, 1321, 1331, 1341, 1351, 1361, 1371, 1381, 1391, 1401, 1411, 1421, 1431, 1441, 1451, 1461, 1471, 1481, 1491, 1501, 1511, 1521, 1531, 1541, 1551, 1561, 1571, 1581, 1591, 1601, 1611, 1621, 1631, 1641, 1651, 1661, 1671, 1681, 1691, 1701, 1711, 1721, 1731, 1741, 1751, 1761, 1771, 1781, 1791, 1801, 1811, 1821, 1831, 1841, 1851, 1861, 1871, 1881]","1104","1920","[960, 960, 960, 960, 960, 960, 960, 960, 960, 960, 960, 960, 960, 960, 960, 960, 960, 960, 960, 960, 960, 960, 960, 960, 960, 960, 960, 960, 960, 960, 960, 960, 960, 960, 960, 960, 960, 960, 960, 960, 960, 960, 960, 960, 960, 960, 960, 960, 960, 960, 960, 960, 960, 960, 960, 960, 960, 960, 959, 957, 956, 955, 954, 952, 951, 947, 945, 941, 939, 928, 923, 916, 911, 898, 892, 883, 873, 860, 853, 845, 838, 826, 819, 813, 805, 789, 781, 771, 765, 752, 744, 738, 730, 715, 709, 700, 692, 678, 668, 660, 654, 638, 629, 618, 608, 589, 578, 568, 556, 537, 525, 515, 508, 493, 488, 482, 475, 463, 458, 451, 443, 427, 420, 410, 399, 382, 374, 364, 355, 337, 327, 319, 309, 291, 284, 275, 266, 252, 243, 234, 228, 213, 205, 200, 194, 184, 181, 180, 178, 176, 175, 175, 174, 172, 171, 169, 169, 167, 165, 165, 164, 164, 162, 161, 160, 158, 157, 157, 157, 156, 156, 156, 155, 155, 155, 155, 155, 155, 155, 155, 155, 155, 155, 155, 155, 155, 155, 155]","[1010, 1010, 1010, 1010, 1010, 1010, 1010, 1010, 1010, 1010, 1010, 1010, 1010, 1010, 1010, 1010, 1010, 1010, 1010, 1010, 1010, 1010, 1010, 1010, 1010, 1010, 1010, 1010, 1010, 1010, 1010, 1010, 1009, 1007, 1004, 1003, 1000, 995, 990, 987, 983, 979, 976, 974, 972, 969, 968, 966, 965, 962, 962, 960, 959, 957, 955, 952, 950, 945, 940, 934, 927, 913, 906, 900, 892, 876, 867, 856, 848, 824, 811, 796, 785, 753, 741, 726, 710, 683, 671, 661, 652, 633, 626, 615, 607, 586, 576, 564, 556, 542, 535, 528, 523, 509, 505, 497, 489, 476, 469, 463, 457, 443, 437, 429, 422, 407, 400, 393, 386, 370, 363, 356, 350, 340, 336, 331, 327, 318, 315, 308, 305, 295, 291, 285, 280, 269, 263, 258, 252, 242, 237, 233, 226, 215, 212, 204, 198, 190, 182, 176, 173, 164, 158, 154, 149, 143, 140, 139, 138, 136, 136, 135, 135, 132, 130, 128, 128, 124, 122, 122, 121, 117, 115, 113, 110, 104, 102, 101, 100, 98, 98, 98, 97, 97, 97, 97, 97, 97, 97, 97, 97, 97, 97, 97, 97, 97, 97, 97]"
"Promise","Wie oft werden Sie die Hälfte zurückgeben?","Promise","1","undefined","5","0","2","60","1080","441","5","1","1728","0","legacy","[11, 21, 31, 41, 51, 61, 71, 81, 91, 101, 111, 121, 131, 141, 151, 161, 171, 181, 191, 201, 211, 221, 231, 241, 251, 261, 271, 281, 291, 301, 311, 321, 331, 341, 351, 361, 371, 381, 391, 401, 411, 421, 431, 441, 451, 461, 471, 481, 491, 501, 511, 521, 531, 541, 551, 561, 571, 581, 591, 601, 611, 621, 631, 641, 651, 661, 671, 681, 691, 701, 711, 721, 731, 741, 751, 761, 771, 781, 791, 801, 811, 821, 831, 841, 851, 861, 871, 881, 891, 901, 911, 921, 931, 941, 951, 961, 971, 981, 991, 1001, 1011, 1021, 1031, 1041, 1051, 1061, 1071, 1081, 1091, 1101, 1111, 1121, 1131, 1141, 1151, 1161, 1171, 1181, 1191, 1201, 1211, 1221, 1231, 1241, 1251, 1261, 1271, 1281, 1291, 1301, 1311, 1321, 1331, 1341, 1351, 1361, 1371, 1381, 1391, 1401, 1411, 1421, 1431, 1441, 1451, 1461, 1471, 1481, 1491, 1501, 1511, 1521, 1531, 1541, 1551, 1561, 1571, 1581, 1591, 1601, 1611, 1621, 1631, 1641, 1651, 1661, 1671, 1681, 1691, 1701, 1711, 1721]","1104","1920","[960, 960, 960, 960, 960, 960, 960, 960, 960, 960, 960, 960, 960, 960, 960, 960, 960, 960, 960, 960, 960, 960, 960, 960, 960, 960, 960, 960, 960, 960, 960, 960, 960, 960, 960, 959, 958, 957, 955, 952, 950, 948, 947, 943, 938, 932, 926, 919, 914, 910, 905, 898, 893, 891, 887, 879, 875, 869, 864, 850, 843, 837, 830, 821, 815, 808, 802, 787, 780, 773, 766, 755, 749, 744, 738, 727, 720, 713, 705, 689, 680, 671, 660, 636, 621, 606, 591, 552, 535, 514, 497, 463, 446, 427, 413, 381, 371, 361, 346, 319, 309, 296, 284, 264, 256, 248, 242, 229, 226, 221, 218, 213, 212, 210, 208, 205, 204, 202, 200, 197, 196, 193, 192, 189, 189, 187, 185, 181, 180, 179, 179, 178, 177, 175, 175, 175, 175, 175, 175, 175, 175, 175, 175, 175, 175, 175, 175, 175, 175, 175, 175, 175, 175, 175, 175, 175, 175, 175, 175, 175, 175, 175, 175, 175, 175, 175, 175, 175, 175, 175, 175, 175]","[1010, 1010, 1010, 1010, 1010, 1010, 1010, 1010, 1010, 1010, 1010, 1010, 1010, 1010, 1010, 1010, 1010, 1010, 1010, 1010, 1010, 1010, 1010, 1010, 1010, 1010, 1010, 1010, 1010, 1010, 1010, 1010, 1009, 1005, 1002, 996, 990, 985, 978, 964, 957, 950, 943, 927, 916, 901, 890, 870, 860, 850, 840, 821, 811, 805, 797, 778, 769, 759, 749, 726, 716, 704, 693, 675, 667, 654, 642, 617, 606, 595, 582, 561, 551, 541, 532, 512, 501, 491, 479, 457, 447, 437, 423, 400, 387, 375, 361, 327, 312, 295, 282, 260, 247, 236, 226, 210, 201, 196, 188, 174, 167, 160, 154, 146, 142, 138, 136, 129, 127, 124, 122, 120, 119, 118, 118, 115, 114, 113, 111, 109, 108, 107, 106, 104, 104, 102, 101, 99, 99, 98, 98, 97, 97, 97, 97, 97, 97, 97, 97, 97, 97, 97, 97, 97, 97, 97, 97, 97, 97, 97, 97, 97, 97, 97, 97, 97, 97, 97, 97, 97, 97, 97, 97, 97, 97, 97, 97, 97, 97, 97, 97, 97]"
"Trust","Teilnehmer A hat Ihnen 2 Punkte übermittelt.","Payback","1","undefined","6","0","2","60","1080","471","5","1","1517","0","legacy","[11, 21, 31, 41, 51, 61, 71, 81, 91, 101, 111, 121, 131, 141, 151, 161, 171, 181, 191, 201, 211, 221, 231, 241, 251, 261, 271, 281, 291, 301, 311, 321, 331, 341, 351, 361, 371, 381, 391, 401, 411, 421, 431, 441, 451, 461, 471, 481, 491, 501, 511, 521, 531, 541, 551, 561, 571, 581, 591, 601, 611, 621, 631, 641, 651, 661, 671, 681, 691, 701, 711, 721, 731, 741, 751, 761, 771, 781, 791, 801, 811, 821, 831, 841, 851, 861, 871, 881, 891, 901, 911, 921, 931, 941, 951, 961, 971, 981, 991, 1001, 1011, 1021, 1031, 1041, 1051, 1061, 1071, 1081, 1091, 1101, 1111, 1121, 1131, 1141, 1151, 1161, 1171, 1181, 1191, 1201, 1211, 1221, 1231, 1241, 1251, 1261, 1271, 1281, 1291, 1301, 1311, 1321, 1331, 1341, 1351, 1361, 1371, 1381, 1391, 1401, 1411, 1421, 1431, 1441, 1451, 1461, 1471, 1481, 1491, 1501, 1511]","1104","1920","[960, 960, 960, 960, 960, 960, 960, 960, 960, 960, 960, 960, 960, 960, 960, 960, 960, 960, 960, 960, 960, 960, 960, 960, 960, 960, 960, 960, 960, 958, 958, 956, 955, 955, 954, 952, 951, 950, 947, 946, 943, 942, 937, 936, 933, 931, 926, 924, 922, 920, 915, 913, 910, 906, 901, 897, 894, 890, 879, 875, 869, 862, 842, 827, 817, 801, 771, 759, 746, 729, 695, 678, 662, 643, 610, 596, 586, 574, 555, 548, 541, 535, 521, 509, 496, 484, 455, 439, 427, 412, 387, 377, 367, 358, 341, 332, 325, 315, 301, 296, 291, 287, 277, 271, 263, 256, 240, 232, 224, 218, 204, 200, 195, 194, 190, 189, 187, 186, 184, 183, 182, 181, 181, 181, 180, 180, 179, 179, 179, 179, 179, 179, 179, 179, 179, 179, 179, 179, 179, 179, 179, 179, 179, 179, 179, 179, 179, 179, 179, 179, 179]","[1010, 1010, 1010, 1010, 1010, 1010, 1010, 1010, 1010, 1010, 1010, 1010, 1010, 1010, 1010, 1010, 1010, 1010, 1010, 1010, 1010, 1010, 1010, 1010, 1010, 1010, 1010, 1010, 1010, 1010, 1009, 1007, 1004, 1004, 999, 996, 994, 991, 984, 976, 971, 967, 957, 951, 945, 941, 931, 925, 920, 915, 904, 898, 891, 884, 869, 862, 850, 841, 818, 808, 796, 783, 746, 724, 703, 675, 624, 602, 578, 550, 498, 470, 447, 422, 381, 366, 355, 346, 330, 324, 317, 312, 300, 291, 280, 270, 249, 238, 231, 222, 207, 201, 196, 190, 179, 174, 169, 164, 153, 149, 145, 142, 133, 128, 123, 118, 108, 104, 101, 97, 93, 91, 88, 87, 86, 85, 84, 84, 83, 83, 82, 82, 82, 82, 82, 82, 82, 82, 82, 82, 82, 82, 82, 82, 82, 82, 82, 82, 82, 82, 82, 82, 82, 82, 82, 82, 82, 82, 82, 82, 82]"
"NoTrust","Teilnehmer A hat Ihnen keine 2 Punkte übermittelt.","Payback","1","undefined","7","0","2","60","1080","471","0","1","1517","0","legacy","[11, 21, 31, 41, 51, 61, 71, 81, 91, 101, 111, 121, 131, 141, 151, 161, 171, 181, 191, 201, 211, 221, 231, 241, 251, 261, 271, 281, 291, 301, 311, 321, 331, 341, 351, 361, 371, 381, 391, 401, 411, 421, 431, 441, 451, 461, 471, 481, 491, 501, 511, 521, 531, 541, 551, 561, 571, 581, 591, 601, 611, 621, 631, 641, 651, 661, 671, 681, 691, 701, 711, 721, 731, 741, 751, 761, 771, 781, 791, 801, 811, 821, 831, 841, 851, 861, 871, 881, 891, 901, 911, 921, 931, 941, 951, 961, 971, 981, 991, 1001, 1011, 1021, 1031, 1041, 1051, 1061, 1071, 1081, 1091, 1101, 1111, 1121, 1131, 1141, 1151, 1161, 1171, 1181, 1191, 1201, 1211, 1221, 1231, 1241, 1251, 1261, 1271, 1281, 1291, 1301, 1311, 1321, 1331, 1341, 1351, 1361, 1371, 1381, 1391, 1401, 1411, 1421, 1431, 1441, 1451, 1461, 1471, 1481, 1491, 1501, 1511]","1104","1920","[960, 960, 960, 960, 960, 960, 960, 960, 960, 960, 960, 960, 960, 960, 960, 960, 960, 960, 960, 960, 960, 960, 960, 960, 960, 960, 960, 960, 960, 958, 958, 956, 955, 955, 954, 952, 951, 950, 947, 946, 943, 942, 937, 936, 933, 931, 926, 924, 922, 920, 915, 913, 910, 906, 901, 897, 894, 890, 879, 875, 869, 862, 842, 827, 817, 801, 771, 759, 746, 729, 695, 678, 662, 643, 610, 596, 586, 574, 555, 548, 541, 535, 521, 509, 496, 484, 455, 439, 427, 412, 387, 377, 367, 358, 341, 332, 325, 315, 301, 296, 291, 287, 277, 271, 263, 256, 240, 232, 224, 218, 204, 200, 195, 194, 190, 189, 187, 186, 184, 183, 182, 181, 181, 181, 180, 180, 179, 179, 179, 179, 179, 179, 179, 179, 179, 179, 179, 179, 179, 179, 179, 179, 179, 179, 179, 179, 179, 179, 179, 179, 179]","[1010, 1010, 1010, 1010, 1010, 1010, 1010, 1010, 1010, 1010, 1010, 1010, 1010, 1010, 1010, 1010, 1010, 1010, 1010, 1010, 1010, 1010, 1010, 1010, 1010, 1010, 1010, 1010, 1010, 1010, 1009, 1007, 1004, 1004, 999, 996, 994, 991, 984, 976, 971, 967, 957, 951, 945, 941, 931, 925, 920, 915, 904, 898, 891, 884, 869, 862, 850, 841, 818, 808, 796, 783, 746, 724, 703, 675, 624, 602, 578, 550, 498, 470, 447, 422, 381, 366, 355, 346, 330, 324, 317, 312, 300, 291, 280, 270, 249, 238, 231, 222, 207, 201, 196, 190, 179, 174, 169, 164, 153, 149, 145, 142, 133, 128, 123, 118, 108, 104, 101, 97, 93, 91, 88, 87, 86, 85, 84, 84, 83, 83, 82, 82, 82, 82, 82, 82, 82, 82, 82, 82, 82, 82, 82, 82, 82, 82, 82, 82, 82, 82, 82, 82, 82, 82, 82, 82, 82, 82, 82, 82, 82]"
"Trust","Teilnehmer A hat Ihnen 2 Punkte übermittelt.","Payback","1","undefined","8","0","2","60","1080","421","5","1","1517","0","legacy","[11, 21, 31, 41, 51, 61, 71, 81, 91, 101, 111, 121, 131, 141, 151, 161, 171, 181, 191, 201, 211, 221, 231, 241, 251, 261, 271, 281, 291, 301, 311, 321, 331, 341, 351, 361, 371, 381, 391, 401, 411, 421, 431, 441, 451, 461, 471, 481, 491, 501, 511, 521, 531, 541, 551, 561, 571, 581, 591, 601, 611, 621, 631, 641, 651, 661, 671, 681, 691, 701, 711, 721, 731, 741, 751, 761, 771, 781, 791, 801, 811, 821, 831, 841, 851, 861, 871, 881, 891, 901, 911, 921, 931, 941, 951, 961, 971, 981, 991, 1001, 1011, 1021, 1031, 1041, 1051, 1061, 1071, 1081, 1091, 1101, 1111, 1121, 1131, 1141, 1151, 1161, 1171, 1181, 1191, 1201, 1211, 1221, 1231, 1241, 1251, 1261, 1271, 1281, 1291, 1301, 1311, 1321, 1331, 1341, 1351, 1361, 1371, 1381, 1391, 1401, 1411, 1421, 1431, 1441, 1451, 1461, 1471, 1481, 1491, 1501, 1511]","1104","1920","[960, 960, 960, 960, 960, 960, 960, 960, 960, 960, 960, 960, 960, 960, 960, 960, 960, 960, 960, 960, 960, 960, 960, 960, 960, 960, 960, 960, 960, 961, 961, 961, 961, 961, 961, 961, 961, 961, 961, 961, 960, 959, 949, 940, 931, 923, 901, 891, 882, 873, 850, 841, 829, 815, 785, 773, 759, 743, 716, 704, 693, 678, 642, 620, 593, 563, 503, 476, 449, 426, 388, 371, 361, 351, 339, 336, 334, 332, 330, 328, 327, 326, 321, 321, 318, 316, 311, 309, 305, 299, 290, 285, 280, 274, 267, 262, 259, 256, 250, 247, 243, 241, 233, 229, 227, 224, 220, 219, 218, 215, 212, 211, 210, 208, 206, 206, 205, 204, 204, 203, 202, 201, 201, 201, 201, 201, 201, 201, 201, 201, 201, 201, 201, 201, 201, 201, 201, 201, 201, 201, 201, 201, 201, 201, 201, 201, 201, 201, 201, 201, 201]","[1010, 1010, 1010, 1010, 1010, 1010, 1010, 1010, 1010, 1010, 1010, 1010, 1010, 1010, 1010, 1010, 1010, 1010, 1010, 1010, 1010, 1010, 1010, 1010, 1010, 1010, 1010, 1010, 1010, 1010, 1006, 1004, 1003, 1000, 991, 987, 982, 976, 964, 957, 947, 937, 910, 889, 866, 848, 810, 791, 777, 764, 734, 720, 703, 683, 641, 626, 606, 588, 555, 543, 526, 508, 467, 443, 416, 386, 335, 313, 293, 277, 247, 234, 227, 222, 213, 211, 209, 208, 206, 205, 205, 204, 201, 200, 198, 197, 194, 193, 190, 187, 180, 179, 175, 171, 165, 162, 160, 157, 151, 148, 143, 138, 128, 124, 122, 120, 116, 115, 114, 111, 106, 104, 104, 102, 100, 99, 99, 98, 98, 98, 98, 97, 96, 96, 96, 96, 96, 96, 96, 96, 96, 96, 96, 96, 96, 96, 96, 96, 96, 96, 96, 96, 96, 96, 96, 96, 96, 96, 96, 96, 96]"
"Promise","Wie oft werden Sie die Hälfte zurückgeben?","Promise","1","undefined","8","0","3","60","1080","601","5","1","1672","0","legacy","[11, 21, 31, 41, 51, 61, 71, 81, 91, 101, 111, 121, 131, 141, 151, 161, 171, 181, 191, 201, 211, 221, 231, 241, 251, 261, 271, 281, 291, 301, 311, 321, 331, 341, 351, 361, 371, 381, 391, 401, 411, 421, 431, 441, 451, 461, 471, 481, 491, 501, 511, 521, 531, 541, 551, 561, 571, 581, 591, 601, 611, 621, 631, 641, 651, 661, 671, 681, 691, 701, 711, 721, 731, 741, 751, 761, 771, 781, 791, 801, 811, 821, 831, 841, 851, 861, 871, 881, 891, 901, 911, 921, 931, 941, 951, 961, 971, 981, 991, 1001, 1011, 1021, 1031, 1041, 1051, 1061, 1071, 1081, 1091, 1101, 1111, 1121, 1131, 1141, 1151, 1161, 1171, 1181, 1191, 1201, 1211, 1221, 1231, 1241, 1251, 1261, 1271, 1281, 1291, 1301, 1311, 1321, 1331, 1341, 1351, 1361, 1371, 1381, 1391, 1401, 1411, 1421, 1431, 1441, 1451, 1461, 1471, 1481, 1491, 1501, 1511, 1521, 1531, 1541, 1551, 1561, 1571, 1581, 1591, 1601, 1611, 1621, 1631, 1641, 1651, 1661, 1671]","1104","1920","[960, 960, 960, 960, 960, 960, 960, 960, 960, 960, 960, 960, 960, 960, 960, 960, 960, 960, 960, 960, 960, 960, 960, 960, 960, 960, 960, 960, 960, 960, 960, 960, 960, 960, 960, 959, 959, 959, 959, 959, 959, 959, 959, 959, 959, 959, 959, 959, 958, 956, 956, 955, 954, 954, 953, 953, 952, 952, 951, 950, 949, 948, 946, 943, 939, 936, 932, 921, 914, 906, 897, 878, 868, 858, 853, 841, 835, 829, 821, 804, 795, 788, 780, 765, 755, 745, 734, 718, 705, 690, 679, 655, 647, 638, 631, 614, 607, 599, 589, 571, 566, 557, 547, 529, 520, 510, 500, 482, 472, 463, 453, 434, 423, 414, 407, 390, 381, 373, 364, 347, 338, 329, 320, 297, 286, 274, 264, 244, 235, 228, 220, 212, 207, 205, 204, 201, 199, 198, 198, 196, 196, 196, 195, 193, 193, 193, 193, 193, 193, 193, 193, 193, 193, 193, 193, 193, 193, 193, 193, 193, 193, 193, 193, 193, 193, 193, 193]","[1010, 1010, 1010, 1010, 1010, 1010, 1010, 1010, 1010, 1010, 1010, 1010, 1010, 1010, 1010, 1010, 1010, 1010, 1010, 1010, 1010, 1010, 1010, 1010, 1010, 1010, 1010, 1010, 1010, 1010, 1010, 1010, 1010, 1010, 1010, 1010, 1009, 1007, 1006, 1000, 996, 993, 990, 984, 980, 977, 976, 971, 969, 966, 963, 960, 957, 955, 953, 949, 946, 943, 941, 938, 934, 930, 925, 914, 905, 898, 889, 864, 852, 837, 821, 789, 770, 754, 741, 714, 702, 690, 676, 644, 630, 619, 607, 585, 571, 556, 542, 515, 501, 483, 470, 443, 434, 426, 418, 404, 398, 391, 383, 370, 363, 356, 349, 337, 330, 323, 315, 303, 298, 291, 283, 266, 258, 248, 239, 220, 208, 200, 193, 178, 172, 164, 158, 144, 138, 131, 125, 113, 109, 105, 101, 96, 93, 92, 92, 91, 90, 90, 90, 90, 89, 89, 89, 89, 89, 89, 89, 89, 89, 89, 89, 89, 89, 89, 89, 89, 89, 89, 89, 89, 89, 89, 89, 89, 89, 89, 89]"
"Trust","Teilnehmer A hat Ihnen 2 Punkte übermittelt.","Payback","1","undefined","9","0","3","60","1080","341","5","1","1477","0","legacy","[11, 21, 31, 41, 51, 61, 71, 81, 91, 101, 111, 121, 131, 141, 151, 161, 171, 181, 191, 201, 211, 221, 231, 241, 251, 261, 271, 281, 291, 301, 311, 321, 331, 341, 351, 361, 371, 381, 391, 401, 411, 421, 431, 441, 451, 461, 471, 481, 491, 501, 511, 521, 531, 541, 551, 561, 571, 581, 591, 601, 611, 621, 631, 641, 651, 661, 671, 681, 691, 701, 711, 721, 731, 741, 751, 761, 771, 781, 791, 801, 811, 821, 831, 841, 851, 861, 871, 881, 891, 901, 911, 921, 931, 941, 951, 961, 971, 981, 991, 1001, 1011, 1021, 1031, 1041, 1051, 1061, 1071, 1081, 1091, 1101, 1111, 1121, 1131, 1141, 1151, 1161, 1171, 1181, 1191, 1201, 1211, 1221, 1231, 1241, 1251, 1261, 1271, 1281, 1291, 1301, 1311, 1321, 1331, 1341, 1351, 1361, 1371, 1381, 1391, 1401, 1411, 1421, 1431, 1441, 1451, 1461, 1471]","1104","1920","[960, 960, 960, 960, 960, 960, 960, 960, 960, 960, 960, 960, 960, 960, 960, 960, 960, 960, 960, 960, 960, 959, 957, 957, 956, 955, 951, 949, 946, 943, 941, 938, 935, 931, 922, 916, 910, 901, 884, 872, 860, 846, 818, 801, 788, 775, 753, 743, 737, 729, 718, 712, 707, 704, 695, 689, 685, 680, 672, 668, 663, 659, 649, 642, 636, 628, 610, 601, 593, 583, 559, 547, 536, 522, 502, 491, 480, 469, 445, 433, 420, 407, 387, 381, 372, 365, 352, 347, 342, 337, 329, 325, 320, 315, 304, 300, 295, 290, 283, 278, 274, 268, 260, 254, 250, 243, 231, 227, 222, 217, 211, 209, 207, 206, 203, 202, 201, 200, 199, 199, 198, 197, 197, 197, 197, 197, 197, 197, 197, 197, 197, 197, 197, 197, 197, 197, 197, 197, 197, 197, 197, 197, 197, 197, 197, 197, 197]","[1010, 1010, 1010, 1010, 1010, 1010, 1010, 1010, 1010, 1010, 1010, 1010, 1010, 1010, 1010, 1010, 1010, 1010, 1010, 1010, 1010, 1009, 1003, 1000, 998, 993, 984, 978, 972, 967, 957, 952, 945, 939, 917, 902, 890, 875, 848, 828, 813, 794, 756, 734, 714, 697, 665, 651, 638, 628, 607, 598, 589, 582, 564, 556, 548, 539, 526, 520, 514, 505, 489, 481, 471, 461, 439, 428, 417, 407, 382, 370, 361, 350, 331, 321, 309, 296, 262, 247, 232, 215, 193, 185, 175, 170, 159, 154, 150, 147, 142, 138, 135, 132, 126, 123, 121, 118, 113, 112, 109, 106, 102, 99, 98, 95, 90, 88, 88, 86, 86, 86, 85, 85, 85, 85, 85, 85, 84, 84, 84, 84, 84, 84, 84, 84, 84, 84, 84, 84, 84, 84, 84, 84, 84, 84, 84, 84, 84, 84, 84, 84, 84, 84, 84, 84, 84]"
"Trust","Teilnehmer A hat Ihnen 2 Punkte übermittelt.","Payback","1","undefined","10","0","3","60","1080","401","5","1","1573","0","legacy","[11, 21, 31, 41, 51, 61, 71, 81, 91, 101, 111, 121, 131, 141, 151, 161, 171, 181, 191, 201, 211, 221, 231, 241, 251, 261, 271, 281, 291, 301, 311, 321, 331, 341, 351, 361, 371, 381, 391, 401, 411, 421, 431, 441, 451, 461, 471, 481, 491, 501, 511, 521, 531, 541, 551, 561, 571, 581, 591, 601, 611, 621, 631, 641, 651, 661, 671, 681, 691, 701, 711, 721, 731, 741, 751, 761, 771, 781, 791, 801, 811, 821, 831, 841, 851, 861, 871, 881, 891, 901, 911, 921, 931, 941, 951, 961, 971, 981, 991, 1001, 1011, 1021, 1031, 1041, 1051, 1061, 1071, 1081, 1091, 1101, 1111, 1121, 1131, 1141, 1151, 1161, 1171, 1181, 1191, 1201, 1211, 1221, 1231, 1241, 1251, 1261, 1271, 1281, 1291, 1301, 1311, 1321, 1331, 1341, 1351, 1361, 1371, 1381, 1391, 1401, 1411, 1421, 1431, 1441, 1451, 1461, 1471, 1481, 1491, 1501, 1511, 1521, 1531, 1541, 1551, 1561, 1571]","1104","1920","[960, 960, 960, 960, 960, 960, 960, 960, 960, 960, 960, 960, 960, 960, 960, 960, 960, 960, 960, 960, 960, 960, 960, 960, 960, 959, 958, 958, 956, 954, 952, 950, 950, 946, 943, 941, 941, 935, 932, 928, 925, 915, 911, 905, 899, 883, 875, 866, 856, 837, 826, 810, 794, 760, 740, 726, 709, 682, 666, 657, 641, 617, 608, 598, 590, 573, 566, 558, 550, 534, 526, 519, 509, 489, 478, 469, 456, 425, 410, 396, 378, 355, 346, 337, 328, 310, 302, 294, 287, 277, 271, 268, 266, 262, 260, 258, 257, 251, 249, 245, 242, 234, 231, 229, 225, 222, 221, 219, 217, 213, 209, 206, 202, 197, 196, 193, 193, 190, 189, 187, 187, 184, 181, 180, 178, 176, 175, 174, 174, 173, 172, 172, 172, 172, 172, 172, 172, 172, 172, 172, 172, 172, 172, 172, 172, 172, 172, 172, 172, 172, 172, 172, 172, 172, 172, 172, 172]","[1010, 1010, 1010, 1010, 1010, 1010, 1010, 1010, 1010, 1010, 1010, 1010, 1010, 1010, 1010, 1010, 1010, 1010, 1010, 1010, 1010, 1010, 1010, 1010, 1010, 1007, 1004, 1003, 999, 992, 988, 985, 982, 974, 968, 963, 960, 950, 942, 934, 929, 913, 904, 894, 885, 865, 857, 845, 833, 814, 801, 786, 772, 737, 714, 698, 673, 634, 614, 602, 582, 552, 538, 526, 516, 495, 486, 478, 469, 450, 441, 434, 423, 403, 393, 384, 373, 347, 335, 324, 309, 288, 277, 268, 258, 240, 232, 224, 218, 209, 202, 199, 196, 192, 189, 188, 186, 181, 179, 176, 174, 169, 166, 163, 161, 157, 155, 153, 151, 146, 142, 138, 133, 127, 124, 122, 120, 116, 115, 112, 110, 106, 104, 103, 100, 97, 96, 95, 94, 92, 92, 92, 92, 92, 92, 92, 92, 92, 92, 92, 92, 92, 92, 92, 92, 92, 92, 92, 92, 92, 92, 92, 92, 92, 92, 92, 92]"
"Trust","Teilnehmer A hat Ihnen 2 Punkte übermittelt.","Payback","1","undefined","11","0","3","60","1080","431","5","1","1813","0","legacy","[11, 21, 31, 41, 51, 61, 71, 81, 91, 101, 111, 121, 131, 141, 151, 161, 171, 181, 191, 201, 211, 221, 231, 241, 251, 261, 271, 281, 291, 301, 311, 321, 331, 341, 351, 361, 371, 381, 391, 401, 411, 421, 431, 441, 451, 461, 471, 481, 491, 501, 511, 521, 531, 541, 551, 561, 571, 581, 591, 601, 611, 621, 631, 641, 651, 661, 671, 681, 691, 701, 711, 721, 731, 741, 751, 761, 771, 781, 791, 801, 811, 821, 831, 841, 851, 861, 871, 881, 891, 901, 911, 921, 931, 941, 951, 961, 971, 981, 991, 1001, 1011, 1021, 1031, 1041, 1051, 1061, 1071, 1081, 1091, 1101, 1111, 1121, 1131, 1141, 1151, 1161, 1171, 1181, 1191, 1201, 1211, 1221, 1231, 1241, 1251, 1261, 1271, 1281, 1291, 1301, 1311, 1321, 1331, 1341, 1351, 1361, 1371, 1381, 1391, 1401, 1411, 1421, 1431, 1441, 1451, 1461, 1471, 1481, 1491, 1501, 1511, 1521, 1531, 1541, 1551, 1561, 1571, 1581, 1591, 1601, 1611, 1621, 1631, 1641, 1651, 1661, 1671, 1681, 1691, 1701, 1711, 1721, 1731, 1741, 1751, 1761, 1771, 1781, 1791, 1801, 1811]","1104","1920","[960, 960, 960, 960, 960, 960, 960, 960, 960, 960, 960, 960, 960, 960, 960, 960, 960, 960, 960, 960, 960, 960, 960, 960, 960, 960, 960, 960, 960, 960, 960, 960, 960, 960, 960, 960, 960, 960, 960, 960, 960, 960, 960, 959, 956, 955, 949, 944, 941, 936, 922, 912, 903, 895, 884, 878, 871, 862, 845, 836, 829, 822, 806, 799, 790, 784, 767, 759, 751, 741, 718, 706, 694, 686, 664, 653, 640, 621, 592, 577, 556, 541, 513, 498, 486, 474, 441, 422, 407, 390, 354, 338, 321, 308, 285, 274, 264, 258, 246, 245, 241, 240, 238, 237, 233, 233, 228, 225, 224, 222, 218, 216, 215, 213, 208, 208, 206, 205, 202, 202, 201, 199, 197, 196, 196, 195, 193, 193, 193, 193, 193, 193, 193, 193, 193, 193, 193, 193, 193, 193, 193, 193, 193, 193, 193, 193, 193, 193, 193, 193, 193, 193, 193, 193, 193, 193, 193, 193, 193, 193, 193, 193, 193, 193, 193, 193, 193, 193, 193, 193, 193, 193, 193, 193, 193, 193, 193, 193, 193, 193, 193]","[1010, 1010, 1010, 1010, 1010, 1010, 1010, 1010, 1010, 1010, 1010, 1010, 1010, 1010, 1010, 1010, 1010, 1010, 1010, 1010, 1010, 1010, 1010, 1010, 1010, 1010, 1010, 1010, 1010, 1009, 1008, 1007, 1007, 1006, 1003, 1001, 997, 994, 983, 977, 963, 949, 919, 904, 891, 880, 853, 841, 828, 810, 779, 760, 744, 731, 709, 698, 685, 671, 639, 625, 612, 600, 580, 570, 558, 550, 531, 522, 512, 500, 472, 460, 445, 435, 410, 397, 380, 361, 333, 319, 301, 289, 264, 251, 240, 230, 205, 192, 181, 168, 147, 136, 126, 119, 105, 99, 94, 92, 87, 86, 84, 84, 83, 82, 81, 80, 79, 78, 77, 77, 77, 77, 77, 77, 77, 77, 77, 77, 77, 77, 77, 77, 77, 77, 77, 77, 77, 77, 77, 77, 77, 77, 77, 77, 77, 77, 77, 77, 77, 77, 77, 77, 77, 77, 77, 77, 77, 77, 77, 77, 77, 77, 77, 77, 77, 77, 77, 77, 77, 77, 77, 77, 77, 77, 77, 77, 77, 77, 77, 77, 77, 77, 77, 77, 77, 77, 77, 77, 77, 77, 77]"
"Promise","Wie oft werden Sie die Hälfte zurückgeben?","Promise","1","undefined","11","0","4","60","1080","411","5","1","1720","0","legacy","[11, 21, 31, 41, 51, 61, 71, 81, 91, 101, 111, 121, 131, 141, 151, 161, 171, 181, 191, 201, 211, 221, 231, 241, 251, 261, 271, 281, 291, 301, 311, 321, 331, 341, 351, 361, 371, 381, 391, 401, 411, 421, 431, 441, 451, 461, 471, 481, 491, 501, 511, 521, 531, 541, 551, 561, 571, 581, 591, 601, 611, 621, 631, 641, 651, 661, 671, 681, 691, 701, 711, 721, 731, 741, 751, 761, 771, 781, 791, 801, 811, 821, 831, 841, 851, 861, 871, 881, 891, 901, 911, 921, 931, 941, 951, 961, 971, 981, 991, 1001, 1011, 1021, 1031, 1041, 1051, 1061, 1071, 1081, 1091, 1101, 1111, 1121, 1131, 1141, 1151, 1161, 1171, 1181, 1191, 1201, 1211, 1221, 1231, 1241, 1251, 1261, 1271, 1281, 1291, 1301, 1311, 1321, 1331, 1341, 1351, 1361, 1371, 1381, 1391, 1401, 1411, 1421, 1431, 1441, 1451, 1461, 1471, 1481, 1491, 1501, 1511, 1521, 1531, 1541, 1551, 1561, 1571, 1581, 1591, 1601, 1611, 1621, 1631, 1641, 1651, 1661, 1671, 1681, 1691, 1701, 1711]","1104","1920","[960, 960, 960, 960, 960, 960, 960, 960, 960, 960, 960, 960, 960, 960, 960, 960, 960, 960, 960, 960, 960, 960, 960, 960, 960, 960, 960, 959, 959, 959, 957, 955, 955, 953, 952, 949, 948, 946, 944, 938, 932, 925, 917, 903, 898, 891, 884, 873, 868, 866, 862, 856, 854, 851, 847, 843, 842, 838, 836, 828, 824, 821, 817, 807, 803, 797, 791, 777, 765, 753, 738, 706, 692, 675, 655, 621, 607, 592, 581, 557, 544, 535, 527, 513, 506, 501, 491, 474, 466, 457, 449, 428, 420, 408, 398, 378, 369, 363, 358, 346, 342, 337, 335, 326, 321, 317, 312, 304, 301, 297, 294, 284, 280, 275, 269, 258, 254, 250, 248, 239, 236, 232, 231, 225, 223, 221, 220, 217, 216, 216, 214, 213, 213, 211, 211, 210, 210, 210, 210, 210, 210, 210, 210, 210, 210, 210, 210, 210, 210, 210, 210, 210, 210, 210, 210, 210, 210, 210, 210, 210, 210, 210, 210, 210, 210, 210, 210, 210, 210, 210, 210]","[1010, 1010, 1010, 1010, 1010, 1010, 1010, 1010, 1010, 1010, 1010, 1010, 1010, 1010, 1010, 1010, 1010, 1010, 1010, 1010, 1010, 1010, 1010, 1010, 1010, 1010, 1010, 1009, 1007, 1006, 1004, 998, 996, 994, 991, 983, 978, 972, 965, 947, 932, 917, 899, 870, 859, 848, 838, 821, 814, 809, 803, 792, 787, 784, 778, 768, 765, 758, 755, 743, 735, 728, 722, 707, 699, 692, 683, 661, 646, 629, 609, 566, 547, 526, 503, 466, 449, 431, 418, 391, 373, 359, 348, 329, 320, 312, 301, 280, 270, 260, 251, 228, 220, 210, 200, 185, 177, 171, 166, 157, 153, 148, 146, 141, 138, 135, 132, 128, 126, 123, 122, 117, 114, 112, 109, 105, 103, 102, 100, 96, 95, 92, 91, 87, 87, 86, 85, 84, 84, 83, 83, 83, 83, 83, 83, 83, 83, 83, 83, 83, 83, 83, 83, 83, 83, 83, 83, 83, 83, 83, 83, 83, 83, 83, 83, 83, 83, 83, 83, 83, 83, 83, 83, 83, 83, 83, 83, 83, 83, 83, 83]"
"Trust","Teilnehmer A hat Ihnen 2 Punkte übermittelt.","Payback","1","undefined","12","0","4","60","1080","331","5","1","1317","0","legacy","[11, 21, 31, 41, 51, 61, 71, 81, 91, 101, 111, 121, 131, 141, 151, 161, 171, 181, 191, 201, 211, 221, 231, 241, 251, 261, 271, 281, 291, 301, 311, 321, 331, 341, 351, 361, 371, 381, 391, 401, 411, 421, 431, 441, 451, 461, 471, 481, 491, 501, 511, 521, 531, 541, 551, 561, 571, 581, 591, 601, 611, 621, 631, 641, 651, 661, 671, 681, 691, 701, 711, 721, 731, 741, 751, 761, 771, 781, 791, 801, 811, 821, 831, 841, 851, 861, 871, 881, 891, 901, 911, 921, 931, 941, 951, 961, 971, 981, 991, 1001, 1011, 1021, 1031, 1041, 1051, 1061, 1071, 1081, 1091, 1101, 1111, 1121, 1131, 1141, 1151, 1161, 1171, 1181, 1191, 1201, 1211, 1221, 1231, 1241, 1251, 1261, 1271, 1281, 1291, 1301, 1311]","1104","1920","[960, 960, 960, 960, 960, 960, 960, 960, 960, 960, 960, 960, 960, 960, 960, 960, 960, 960, 960, 960, 960, 960, 960, 960, 960, 960, 958, 956, 954, 951, 946, 945, 940, 937, 928, 924, 917, 914, 901, 896, 888, 879, 861, 852, 845, 832, 808, 795, 782, 768, 745, 729, 715, 703, 678, 664, 651, 636, 609, 600, 593, 585, 570, 565, 556, 550, 532, 523, 515, 503, 480, 470, 455, 439, 409, 393, 381, 368, 351, 341, 332, 326, 312, 305, 300, 294, 283, 278, 272, 268, 253, 248, 241, 235, 228, 226, 224, 222, 219, 218, 217, 216, 214, 213, 211, 211, 210, 210, 210, 210, 210, 209, 209, 208, 208, 208, 208, 208, 208, 208, 208, 208, 208, 208, 208, 208, 208, 208, 208, 208, 208]","[1010, 1010, 1010, 1010, 1010, 1010, 1010, 1010, 1010, 1010, 1010, 1010, 1010, 1010, 1010, 1010, 1010, 1010, 1010, 1010, 1010, 1010, 1007, 1005, 1002, 999, 987, 980, 973, 964, 946, 940, 930, 922, 899, 886, 872, 862, 830, 817, 798, 778, 739, 716, 695, 671, 630, 606, 584, 562, 519, 497, 477, 460, 426, 408, 393, 373, 340, 330, 322, 313, 300, 295, 290, 284, 272, 266, 260, 254, 240, 235, 226, 217, 200, 190, 183, 176, 166, 161, 155, 151, 144, 140, 138, 134, 128, 125, 122, 119, 111, 108, 104, 101, 96, 96, 95, 94, 93, 92, 91, 91, 91, 91, 89, 89, 89, 89, 89, 89, 89, 89, 89, 89, 89, 89, 89, 89, 89, 89, 89, 89, 89, 89, 89, 89, 89, 89, 89, 89, 89]"
"Trust","Teilnehmer A hat Ihnen 2 Punkte übermittelt.","Payback","1","undefined","13","0","4","60","1080","441","5","1","1524","0","legacy","[11, 21, 31, 41, 51, 61, 71, 81, 91, 101, 111, 121, 131, 141, 151, 161, 171, 181, 191, 201, 211, 221, 231, 241, 251, 261, 271, 281, 291, 301, 311, 321, 331, 341, 351, 361, 371, 381, 391, 401, 411, 421, 431, 441, 451, 461, 471, 481, 491, 501, 511, 521, 531, 541, 551, 561, 571, 581, 591, 601, 611, 621, 631, 641, 651, 661, 671, 681, 691, 701, 711, 721, 731, 741, 751, 761, 771, 781, 791, 801, 811, 821, 831, 841, 851, 861, 871, 881, 891, 901, 911, 921, 931, 941, 951, 961, 971, 981, 991, 1001, 1011, 1021, 1031, 1041, 1051, 1061, 1071, 1081, 1091, 1101, 1111, 1121, 1131, 1141, 1151, 1161, 1171, 1181, 1191, 1201, 1211, 1221, 1231, 1241, 1251, 1261, 1271, 1281, 1291, 1301, 1311, 1321, 1331, 1341, 1351, 1361, 1371, 1381, 1391, 1401, 1411, 1421, 1431, 1441, 1451, 1461, 1471, 1481, 1491, 1501, 1511, 1521]","1104","1920","[960, 960, 960, 960, 960, 960, 960, 960, 960, 960, 960, 960, 960, 960, 960, 960, 960, 960, 960, 960, 960, 960, 960, 960, 960, 960, 960, 960, 960, 960, 960, 960, 960, 960, 960, 960, 960, 960, 960, 956, 951, 944, 938, 931, 918, 891, 877, 865, 851, 829, 822, 818, 814, 806, 802, 800, 798, 793, 788, 783, 774, 756, 745, 730, 717, 686, 669, 656, 646, 625, 617, 609, 600, 583, 573, 563, 549, 523, 505, 490, 473, 441, 425, 405, 395, 372, 364, 354, 346, 330, 321, 312, 302, 286, 279, 271, 268, 263, 260, 256, 254, 247, 244, 242, 240, 233, 229, 226, 223, 216, 213, 210, 208, 202, 200, 197, 192, 186, 184, 181, 179, 177, 176, 176, 176, 176, 176, 176, 176, 176, 176, 176, 176, 176, 176, 176, 176, 176, 176, 176, 176, 176, 176, 176, 176, 176, 176, 176, 176, 176, 176, 176]","[1010, 1010, 1010, 1010, 1010, 1010, 1010, 1010, 1010, 1010, 1010, 1010, 1010, 1010, 1010, 1010, 1010, 1010, 1010, 1010, 1010, 1010, 1010, 1010, 1010, 1010, 1010, 1010, 1010, 1010, 1010, 1010, 1010, 1007, 1007, 1006, 1003, 999, 995, 989, 981, 963, 951, 938, 917, 868, 841, 819, 797, 762, 750, 743, 734, 722, 713, 709, 704, 693, 685, 673, 658, 627, 608, 584, 562, 519, 501, 484, 469, 446, 437, 427, 417, 396, 384, 373, 357, 333, 318, 306, 291, 267, 255, 242, 235, 218, 212, 206, 201, 191, 184, 178, 172, 162, 158, 155, 152, 149, 146, 144, 142, 136, 133, 132, 131, 127, 124, 122, 121, 116, 115, 113, 112, 109, 108, 106, 103, 100, 99, 98, 96, 95, 94, 94, 94, 94, 94, 94, 94, 94, 94, 94, 94, 94, 94, 94, 94, 94, 94, 94, 94, 94, 94, 94, 94, 94, 94, 94, 94, 94, 94, 94]"
"Trust","Teilnehmer A hat Ihnen 2 Punkte übermittelt.","Payback","1","undefined","14","0","4","60","1080","451","5","1","1708","0","legacy","[11, 21, 31, 41, 51, 61, 71, 81, 91, 101, 111, 121, 131, 141, 151, 161, 171, 181, 191, 201, 211, 221, 231, 241, 251, 261, 271, 281, 291, 301, 311, 321, 331, 341, 351, 361, 371, 381, 391, 401, 411, 421, 431, 441, 451, 461, 471, 481, 491, 501, 511, 521, 531, 541, 551, 561, 571, 581, 591, 601, 611, 621, 631, 641, 651, 661, 671, 681, 691, 701, 711, 721, 731, 741, 751, 761, 771, 781, 791, 801, 811, 821, 831, 841, 851, 861, 871, 881, 891, 901, 911, 921, 931, 941, 951, 961, 971, 981, 991, 1001, 1011, 1021, 1031, 1041, 1051, 1061, 1071, 1081, 1091, 1101, 1111, 1121, 1131, 1141, 1151, 1161, 1171, 1181, 1191, 1201, 1211, 1221, 1231, 1241, 1251, 1261, 1271, 1281, 1291, 1301, 1311, 1321, 1331, 1341, 1351, 1361, 1371, 1381, 1391, 1401, 1411, 1421, 1431, 1441, 1451, 1461, 1471, 1481, 1491, 1501, 1511, 1521, 1531, 1541, 1551, 1561, 1571, 1581, 1591, 1601, 1611, 1621, 1631, 1641, 1651, 1661, 1671, 1681, 1691, 1701]","1104","1920","[960, 960, 960, 960, 960, 960, 960, 960, 960, 960, 960, 960, 960, 960, 960, 960, 960, 960, 960, 960, 960, 960, 960, 960, 960, 960, 959, 957, 957, 956, 955, 953, 953, 948, 948, 947, 944, 941, 939, 938, 935, 930, 929, 927, 925, 920, 917, 914, 912, 906, 904, 898, 894, 883, 877, 870, 862, 850, 844, 838, 831, 815, 804, 794, 780, 754, 740, 728, 710, 677, 657, 638, 619, 582, 561, 549, 531, 504, 494, 478, 465, 438, 426, 418, 409, 396, 391, 387, 383, 370, 365, 357, 348, 331, 323, 315, 308, 297, 293, 288, 286, 278, 273, 271, 267, 258, 253, 250, 246, 237, 233, 228, 224, 216, 213, 209, 207, 204, 202, 201, 200, 198, 197, 197, 197, 197, 197, 197, 197, 197, 197, 197, 197, 197, 197, 197, 197, 197, 197, 197, 197, 197, 197, 197, 197, 197, 197, 197, 197, 197, 197, 197, 197, 197, 197, 197, 197, 197, 197, 197, 197, 197, 197, 197, 197, 197, 197, 197, 197, 197]","[1010, 1010, 1010, 1010, 1010, 1010, 1010, 1010, 1010, 1010, 1010, 1010, 1010, 1010, 1010, 1010, 1010, 1010, 1010, 1010, 1010, 1010, 1010, 1010, 1010, 1010, 1010, 1008, 1008, 1005, 1003, 1000, 998, 991, 989, 987, 985, 975, 972, 967, 961, 952, 947, 943, 939, 929, 921, 913, 908, 895, 888, 878, 869, 849, 840, 830, 819, 802, 793, 784, 774, 754, 734, 716, 693, 659, 637, 622, 599, 558, 537, 516, 495, 460, 442, 431, 418, 394, 386, 376, 369, 353, 347, 342, 337, 327, 321, 316, 308, 294, 285, 276, 266, 247, 237, 226, 219, 204, 198, 189, 184, 172, 164, 160, 154, 142, 136, 131, 126, 115, 110, 104, 100, 91, 86, 82, 80, 76, 74, 72, 71, 70, 69, 69, 68, 68, 68, 68, 68, 68, 68, 68, 68, 68, 68, 68, 68, 68, 68, 68, 68, 68, 68, 68, 68, 68, 68, 68, 68, 68, 68, 68, 68, 68, 68, 68, 68, 68, 68, 68, 68, 68, 68, 68, 68, 68, 68, 68, 68, 68]"
"Promise","Wie oft werden Sie die Hälfte zurückgeben?","Promise","1","undefined","14","0","5","60","1080","441","5","1","1376","0","legacy","[11, 21, 31, 41, 51, 61, 71, 81, 91, 101, 111, 121, 131, 141, 151, 161, 171, 181, 191, 201, 211, 221, 231, 241, 251, 261, 271, 281, 291, 301, 311, 321, 331, 341, 351, 361, 371, 381, 391, 401, 411, 421, 431, 441, 451, 461, 471, 481, 491, 501, 511, 521, 531, 541, 551, 561, 571, 581, 591, 601, 611, 621, 631, 641, 651, 661, 671, 681, 691, 701, 711, 721, 731, 741, 751, 761, 771, 781, 791, 801, 811, 821, 831, 841, 851, 861, 871, 881, 891, 901, 911, 921, 931, 941, 951, 961, 971, 981, 991, 1001, 1011, 1021, 1031, 1041, 1051, 1061, 1071, 1081, 1091, 1101, 1111, 1121, 1131, 1141, 1151, 1161, 1171, 1181, 1191, 1201, 1211, 1221, 1231, 1241, 1251, 1261, 1271, 1281, 1291, 1301, 1311, 1321, 1331, 1341, 1351, 1361, 1371]","1104","1920","[960, 960, 960, 960, 960, 960, 960, 960, 960, 960, 960, 960, 960, 960, 960, 960, 960, 960, 960, 960, 960, 960, 960, 960, 960, 960, 960, 959, 958, 957, 956, 952, 952, 950, 947, 946, 943, 943, 942, 937, 934, 930, 928, 921, 916, 910, 901, 882, 877, 869, 861, 849, 843, 838, 829, 807, 797, 783, 770, 745, 733, 721, 708, 677, 663, 649, 631, 602, 589, 575, 561, 524, 503, 482, 459, 418, 400, 382, 365, 337, 328, 319, 311, 297, 290, 284, 279, 270, 267, 263, 261, 259, 256, 256, 254, 251, 249, 246, 243, 240, 238, 236, 234, 230, 229, 228, 226, 225, 224, 224, 222, 221, 220, 219, 219, 219, 219, 219, 217, 217, 217, 217, 217, 217, 217, 217, 217, 217, 217, 217, 217, 217, 217, 217, 217, 217, 217]","[1010, 1010, 1010, 1010, 1010, 1010, 1010, 1010, 1010, 1010, 1010, 1010, 1010, 1010, 1010, 1010, 1010, 1010, 1010, 1010, 1010, 1010, 1010, 1010, 1010, 1010, 1010, 1008, 1007, 1004, 1002, 996, 995, 992, 987, 981, 979, 974, 971, 960, 956, 947, 941, 925, 914, 902, 887, 852, 839, 826, 816, 798, 789, 781, 767, 729, 711, 691, 671, 641, 626, 611, 594, 561, 543, 527, 507, 474, 456, 441, 423, 388, 371, 351, 333, 296, 282, 265, 254, 230, 221, 212, 202, 180, 171, 163, 152, 141, 138, 133, 130, 128, 125, 125, 123, 120, 118, 116, 115, 111, 110, 107, 107, 103, 102, 101, 101, 99, 99, 99, 98, 97, 97, 96, 96, 96, 96, 96, 96, 96, 96, 96, 96, 96, 96, 96, 96, 96, 96, 96, 96, 96, 96, 96, 96, 96, 96]"
"NoTrust","Teilnehmer A hat Ihnen keine 2 Punkte übermittelt.","Payback","1","undefined","15","0","5","60","1080","441","0","1","1376","0","legacy","[11, 21, 31, 41, 51, 61, 71, 81, 91, 101, 111, 121, 131, 141, 151, 161, 171, 181, 191, 201, 211, 221, 231, 241, 251, 261, 271, 281, 291, 301, 311, 321, 331, 341, 351, 361, 371, 381, 391, 401, 411, 421, 431, 441, 451, 461, 471, 481, 491, 501, 511, 521, 531, 541, 551, 561, 571, 581, 591, 601, 611, 621, 631, 641, 651, 661, 671, 681, 691, 701, 711, 721, 731, 741, 751, 761, 771, 781, 791, 801, 811, 821, 831, 841, 851, 861, 871, 881, 891, 901, 911, 921, 931, 941, 951, 961, 971, 981, 991, 1001, 1011, 1021, 1031, 1041, 1051, 1061, 1071, 1081, 1091, 1101, 1111, 1121, 1131, 1141, 1151, 1161, 1171, 1181, 1191, 1201, 1211, 1221, 1231, 1241, 1251, 1261, 1271, 1281, 1291, 1301, 1311, 1321, 1331, 1341, 1351, 1361, 1371]","1104","1920","[960, 960, 960, 960, 960, 960, 960, 960, 960, 960, 960, 960, 960, 960, 960, 960, 960, 960, 960, 960, 960, 960, 960, 960, 960, 960, 960, 959, 958, 957, 956, 952, 952, 950, 947, 946, 943, 943, 942, 937, 934, 930, 928, 921, 916, 910, 901, 882, 877, 869, 861, 849, 843, 838, 829, 807, 797, 783, 770, 745, 733, 721, 708, 677, 663, 649, 631, 602, 589, 575, 561, 524, 503, 482, 459, 418, 400, 382, 365, 337, 328, 319, 311, 297, 290, 284, 279, 270, 267, 263, 261, 259, 256, 256, 254, 251, 249, 246, 243, 240, 238, 236, 234, 230, 229, 228, 226, 225, 224, 224, 222, 221, 220, 219, 219, 219, 219, 219, 217, 217, 217, 217, 217, 217, 217, 217, 217, 217, 217, 217, 217, 217, 217, 217, 217, 217, 217]","[1010, 1010, 1010, 1010, 1010, 1010, 1010, 1010, 1010, 1010, 1010, 1010, 1010, 1010, 1010, 1010, 1010, 1010, 1010, 1010, 1010, 1010, 1010, 1010, 1010, 1010, 1010, 1008, 1007, 1004, 1002, 996, 995, 992, 987, 981, 979, 974, 971, 960, 956, 947, 941, 925, 914, 902, 887, 852, 839, 826, 816, 798, 789, 781, 767, 729, 711, 691, 671, 641, 626, 611, 594, 561, 543, 527, 507, 474, 456, 441, 423, 388, 371, 351, 333, 296, 282, 265, 254, 230, 221, 212, 202, 180, 171, 163, 152, 141, 138, 133, 130, 128, 125, 125, 123, 120, 118, 116, 115, 111, 110, 107, 107, 103, 102, 101, 101, 99, 99, 99, 98, 97, 97, 96, 96, 96, 96, 96, 96, 96, 96, 96, 96, 96, 96, 96, 96, 96, 96, 96, 96, 96, 96, 96, 96, 96, 96]"
"Trust","Teilnehmer A hat Ihnen 2 Punkte übermittelt.","Payback","1","undefined","16","0","5","60","1080","451","5","1","1532","0","legacy","[11, 21, 31, 41, 51, 61, 71, 81, 91, 101, 111, 121, 131, 141, 151, 161, 171, 181, 191, 201, 211, 221, 231, 241, 251, 261, 271, 281, 291, 301, 311, 321, 331, 341, 351, 361, 371, 381, 391, 401, 411, 421, 431, 441, 451, 461, 471, 481, 491, 501, 511, 521, 531, 541, 551, 561, 571, 581, 591, 601, 611, 621, 631, 641, 651, 661, 671, 681, 691, 701, 711, 721, 731, 741, 751, 761, 771, 781, 791, 801, 811, 821, 831, 841, 851, 861, 871, 881, 891, 901, 911, 921, 931, 941, 951, 961, 971, 981, 991, 1001, 1011, 1021, 1031, 1041, 1051, 1061, 1071, 1081, 1091, 1101, 1111, 1121, 1131, 1141, 1151, 1161, 1171, 1181, 1191, 1201, 1211, 1221, 1231, 1241, 1251, 1261, 1271, 1281, 1291, 1301, 1311, 1321, 1331, 1341, 1351, 1361, 1371, 1381, 1391, 1401, 1411, 1421, 1431, 1441, 1451, 1461, 1471, 1481, 1491, 1501, 1511, 1521, 1531]","1104","1920","[960, 960, 960, 960, 960, 960, 960, 960, 960, 960, 960, 960, 960, 960, 960, 960, 960, 960, 960, 960, 960, 960, 960, 960, 960, 960, 960, 960, 960, 960, 960, 960, 960, 960, 960, 960, 959, 957, 954, 954, 953, 949, 947, 944, 941, 934, 931, 929, 925, 913, 909, 903, 896, 884, 879, 876, 871, 861, 857, 854, 850, 840, 835, 829, 825, 811, 801, 793, 783, 758, 743, 726, 706, 662, 644, 626, 612, 585, 575, 567, 560, 547, 540, 535, 528, 518, 512, 506, 498, 487, 479, 475, 468, 457, 451, 445, 437, 426, 419, 413, 405, 390, 378, 367, 358, 336, 326, 316, 305, 286, 277, 270, 263, 250, 243, 240, 235, 230, 228, 227, 225, 223, 221, 220, 219, 217, 217, 217, 216, 215, 215, 215, 215, 215, 215, 215, 215, 215, 215, 215, 215, 215, 215, 215, 215, 215, 215, 215, 215, 215, 215, 215, 215]","[1010, 1010, 1010, 1010, 1010, 1010, 1010, 1010, 1010, 1010, 1010, 1010, 1010, 1010, 1010, 1010, 1010, 1010, 1010, 1010, 1010, 1010, 1010, 1010, 1010, 1010, 1010, 1010, 1010, 1010, 1010, 1010, 1010, 1007, 1006, 1003, 999, 993, 986, 980, 973, 957, 949, 942, 932, 912, 905, 899, 890, 867, 861, 851, 842, 826, 818, 812, 804, 792, 786, 779, 771, 756, 747, 739, 730, 708, 695, 683, 670, 633, 613, 588, 562, 507, 484, 464, 448, 419, 410, 401, 394, 380, 372, 367, 361, 351, 345, 341, 335, 325, 321, 318, 313, 305, 301, 297, 292, 283, 278, 273, 267, 254, 246, 234, 225, 202, 191, 180, 170, 154, 146, 140, 135, 123, 119, 115, 112, 107, 106, 105, 104, 103, 102, 101, 101, 100, 100, 100, 100, 100, 100, 100, 100, 100, 100, 100, 100, 100, 100, 100, 100, 100, 100, 100, 100, 100, 100, 100, 100, 100, 100, 100, 100]"
"Trust","Teilnehmer A hat Ihnen 2 Punkte übermittelt.","Payback","1","undefined","17","0","5","60","1080","461","5","1","1917","0","legacy","[11, 21, 31, 41, 51, 61, 71, 81, 91, 101, 111, 121, 131, 141, 151, 161, 171, 181, 191, 201, 211, 221, 231, 241, 251, 261, 271, 281, 291, 301, 311, 321, 331, 341, 351, 361, 371, 381, 391, 401, 411, 421, 431, 441, 451, 461, 471, 481, 491, 501, 511, 521, 531, 541, 551, 561, 571, 581, 591, 601, 611, 621, 631, 641, 651, 661, 671, 681, 691, 701, 711, 721, 731, 741, 751, 761, 771, 781, 791, 801, 811, 821, 831, 841, 851, 861, 871, 881, 891, 901, 911, 921, 931, 941, 951, 961, 971, 981, 991, 1001, 1011, 1021, 1031, 1041, 1051, 1061, 1071, 1081, 1091, 1101, 1111, 1121, 1131, 1141, 1151, 1161, 1171, 1181, 1191, 1201, 1211, 1221, 1231, 1241, 1251, 1261, 1271, 1281, 1291, 1301, 1311, 1321, 1331, 1341, 1351, 1361, 1371, 1381, 1391, 1401, 1411, 1421, 1431, 1441, 1451, 1461, 1471, 1481, 1491, 1501, 1511, 1521, 1531, 1541, 1551, 1561, 1571, 1581, 1591, 1601, 1611, 1621, 1631, 1641, 1651, 1661, 1671, 1681, 1691, 1701, 1711, 1721, 1731, 1741, 1751, 1761, 1771, 1781, 1791, 1801, 1811, 1821, 1831, 1841, 1851, 1861, 1871, 1881, 1891, 1901, 1911]","1104","1920","[960, 960, 960, 960, 960, 960, 960, 960, 960, 960, 960, 960, 960, 960, 960, 960, 960, 960, 960, 960, 960, 960, 960, 960, 960, 960, 960, 960, 960, 960, 958, 958, 957, 956, 955, 954, 954, 953, 949, 948, 946, 945, 942, 939, 938, 936, 933, 929, 929, 926, 921, 919, 916, 914, 909, 906, 904, 900, 894, 889, 885, 878, 867, 861, 856, 850, 838, 832, 825, 815, 802, 795, 788, 783, 773, 765, 757, 750, 735, 725, 716, 708, 689, 680, 669, 660, 641, 631, 618, 605, 575, 557, 534, 516, 473, 450, 424, 401, 359, 340, 326, 311, 291, 283, 276, 268, 259, 252, 247, 244, 236, 233, 231, 228, 224, 222, 220, 217, 213, 210, 208, 204, 195, 193, 190, 188, 185, 184, 179, 178, 172, 171, 169, 166, 163, 161, 159, 159, 158, 158, 158, 158, 158, 158, 158, 158, 158, 158, 158, 158, 158, 158, 158, 158, 158, 158, 158, 158, 158, 158, 158, 158, 158, 158, 158, 158, 158, 158, 158, 158, 158, 158, 158, 158, 158, 158, 158, 158, 158, 158, 158, 158, 158, 158, 158, 158, 158, 158, 158, 158, 158]","[1010, 1010, 1010, 1010, 1010, 1010, 1010, 1010, 1010, 1010, 1010, 1010, 1010, 1010, 1010, 1010, 1010, 1010, 1010, 1010, 1010, 1010, 1010, 1010, 1010, 1010, 1010, 1010, 1010, 1010, 1009, 1008, 1006, 1003, 997, 994, 990, 987, 977, 972, 966, 963, 951, 948, 943, 938, 931, 924, 918, 913, 902, 896, 890, 886, 874, 868, 863, 856, 836, 826, 817, 806, 785, 777, 769, 759, 737, 727, 714, 698, 675, 664, 655, 645, 628, 618, 610, 602, 581, 569, 560, 550, 528, 518, 506, 495, 472, 462, 448, 435, 410, 394, 376, 361, 327, 311, 288, 272, 245, 233, 222, 212, 197, 192, 185, 179, 172, 165, 161, 160, 154, 152, 150, 149, 146, 145, 144, 143, 140, 139, 136, 135, 130, 128, 127, 126, 124, 123, 121, 120, 118, 116, 115, 114, 112, 111, 109, 109, 109, 109, 109, 109, 109, 109, 109, 109, 109, 109, 109, 109, 109, 109, 109, 109, 109, 109, 109, 109, 109, 109, 109, 109, 109, 109, 109, 109, 109, 109, 109, 109, 109, 109, 109, 109, 109, 109, 109, 109, 109, 109, 109, 109, 109, 109, 109, 109, 109, 109, 109, 109, 109]"
"Promise","Wie oft werden Sie die Hälfte zurückgeben?","Promise","1","undefined","17","0","6","60","1080","451","5","1","1905","0","legacy","[11, 21, 31, 41, 51, 61, 71, 81, 91, 101, 111, 121, 131, 141, 151, 161, 171, 181, 191, 201, 211, 221, 231, 241, 251, 261, 271, 281, 291, 301, 311, 321, 331, 341, 351, 361, 371, 381, 391, 401, 411, 421, 431, 441, 451, 461, 471, 481, 491, 501, 511, 521, 531, 541, 551, 561, 571, 581, 591, 601, 611, 621, 631, 641, 651, 661, 671, 681, 691, 701, 711, 721, 731, 741, 751, 761, 771, 781, 791, 801, 811, 821, 831, 841, 851, 861, 871, 881, 891, 901, 911, 921, 931, 941, 951, 961, 971, 981, 991, 1001, 1011, 1021, 1031, 1041, 1051, 1061, 1071, 1081, 1091, 1101, 1111, 1121, 1131, 1141, 1151, 1161, 1171, 1181, 1191, 1201, 1211, 1221, 1231, 1241, 1251, 1261, 1271, 1281, 1291, 1301, 1311, 1321, 1331, 1341, 1351, 1361, 1371, 1381, 1391, 1401, 1411, 1421, 1431, 1441, 1451, 1461, 1471, 1481, 1491, 1501, 1511, 1521, 1531, 1541, 1551, 1561, 1571, 1581, 1591, 1601, 1611, 1621, 1631, 1641, 1651, 1661, 1671, 1681, 1691, 1701, 1711, 1721, 1731, 1741, 1751, 1761, 1771, 1781, 1791, 1801, 1811, 1821, 1831, 1841, 1851, 1861, 1871, 1881, 1891, 1901]","1104","1920","[960, 960, 960, 960, 960, 960, 960, 960, 960, 960, 960, 960, 960, 960, 960, 960, 960, 960, 960, 960, 960, 960, 960, 959, 959, 959, 959, 958, 958, 957, 957, 957, 957, 957, 956, 956, 953, 953, 952, 950, 950, 949, 949, 949, 949, 949, 949, 949, 950, 950, 950, 950, 949, 944, 941, 936, 928, 924, 919, 915, 905, 899, 892, 887, 874, 869, 864, 859, 849, 844, 838, 834, 822, 816, 808, 799, 769, 753, 737, 716, 686, 676, 666, 657, 641, 632, 623, 612, 595, 581, 572, 562, 540, 530, 518, 508, 487, 478, 468, 458, 439, 430, 424, 418, 408, 404, 401, 399, 392, 388, 383, 378, 366, 357, 351, 343, 330, 324, 321, 315, 307, 301, 297, 289, 276, 269, 261, 254, 243, 237, 231, 223, 221, 219, 217, 217, 216, 216, 216, 216, 214, 214, 214, 214, 214, 214, 214, 214, 214, 214, 214, 214, 214, 214, 214, 214, 214, 214, 214, 214, 214, 214, 214, 214, 214, 214, 214, 214, 214, 214, 214, 214, 214, 214, 214, 214, 214, 214, 214, 214, 214, 214, 214, 214, 214, 214, 214, 214, 214, 214]","[1010, 1010, 1010, 1010, 1010, 1010, 1010, 1010, 1010, 1010, 1010, 1010, 1010, 1010, 1010, 1010, 1010, 1010, 1010, 1010, 1010, 1010, 1010, 1011, 1011, 1010, 1009, 1008, 1005, 1003, 1001, 999, 995, 992, 989, 986, 977, 974, 970, 965, 958, 953, 949, 943, 928, 917, 907, 898, 877, 864, 851, 841, 815, 802, 790, 777, 751, 741, 729, 719, 699, 689, 678, 668, 649, 639, 631, 625, 610, 604, 597, 591, 579, 571, 562, 550, 519, 503, 487, 470, 444, 434, 426, 420, 406, 398, 390, 380, 364, 354, 346, 337, 318, 310, 301, 294, 280, 275, 269, 263, 250, 245, 240, 235, 229, 226, 224, 222, 216, 212, 208, 204, 196, 190, 186, 182, 177, 175, 172, 171, 167, 164, 162, 158, 151, 145, 141, 136, 128, 124, 119, 114, 112, 111, 109, 109, 108, 108, 108, 108, 107, 106, 106, 106, 106, 106, 106, 106, 106, 106, 106, 106, 106, 106, 106, 106, 106, 106, 106, 106, 106, 106, 106, 106, 106, 106, 106, 106, 106, 106, 106, 106, 106, 106, 106, 106, 106, 106, 106, 106, 106, 106, 106, 106, 106, 106, 106, 106, 106, 106]"
"Trust","Teilnehmer A hat Ihnen 2 Punkte übermittelt.","Payback","1","undefined","18","0","6","60","1080","361","5","1","1479","0","legacy","[11, 21, 31, 41, 51, 61, 71, 81, 91, 101, 111, 121, 131, 141, 151, 161, 171, 181, 191, 201, 211, 221, 231, 241, 251, 261, 271, 281, 291, 301, 311, 321, 331, 341, 351, 361, 371, 381, 391, 401, 411, 421, 431, 441, 451, 461, 471, 481, 491, 501, 511, 521, 531, 541, 551, 561, 571, 581, 591, 601, 611, 621, 631, 641, 651, 661, 671, 681, 691, 701, 711, 721, 731, 741, 751, 761, 771, 781, 791, 801, 811, 821, 831, 841, 851, 861, 871, 881, 891, 901, 911, 921, 931, 941, 951, 961, 971, 981, 991, 1001, 1011, 1021, 1031, 1041, 1051, 1061, 1071, 1081, 1091, 1101, 1111, 1121, 1131, 1141, 1151, 1161, 1171, 1181, 1191, 1201, 1211, 1221, 1231, 1241, 1251, 1261, 1271, 1281, 1291, 1301, 1311, 1321, 1331, 1341, 1351, 1361, 1371, 1381, 1391, 1401, 1411, 1421, 1431, 1441, 1451, 1461, 1471]","1104","1920","[960, 960, 960, 960, 960, 960, 960, 960, 960, 960, 960, 960, 960, 960, 960, 960, 960, 960, 960, 960, 960, 960, 959, 959, 958, 958, 956, 955, 954, 952, 951, 948, 947, 946, 945, 940, 936, 932, 929, 919, 912, 907, 903, 892, 885, 876, 868, 851, 837, 824, 811, 775, 759, 736, 718, 688, 681, 669, 661, 637, 621, 603, 581, 535, 514, 493, 473, 432, 419, 398, 385, 352, 335, 317, 297, 263, 249, 237, 226, 208, 199, 193, 187, 179, 173, 171, 166, 157, 153, 151, 148, 139, 139, 137, 136, 133, 131, 130, 128, 127, 127, 126, 126, 125, 125, 124, 124, 124, 124, 124, 124, 124, 124, 124, 124, 124, 124, 124, 124, 124, 124, 124, 124, 124, 124, 124, 124, 124, 124, 124, 124, 124, 124, 124, 124, 124, 124, 124, 124, 124, 124, 124, 124, 124, 124, 124, 124]","[1010, 1010, 1010, 1010, 1010, 1010, 1010, 1010, 1010, 1010, 1010, 1010, 1010, 1010, 1010, 1010, 1010, 1010, 1010, 1010, 1010, 1010, 1010, 1006, 1003, 1000, 996, 989, 986, 982, 978, 968, 964, 960, 951, 939, 932, 926, 920, 898, 887, 880, 870, 852, 842, 831, 821, 801, 785, 767, 750, 704, 682, 653, 632, 594, 581, 566, 555, 523, 505, 482, 461, 413, 391, 370, 349, 314, 303, 291, 279, 250, 237, 223, 209, 185, 174, 166, 158, 148, 144, 140, 136, 131, 127, 126, 123, 117, 116, 114, 112, 108, 107, 106, 105, 103, 102, 101, 100, 98, 98, 98, 97, 96, 96, 95, 95, 95, 95, 95, 95, 95, 95, 95, 95, 95, 95, 95, 95, 95, 95, 95, 95, 95, 95, 95, 95, 95, 95, 95, 95, 95, 95, 95, 95, 95, 95, 95, 95, 95, 95, 95, 95, 95, 95, 95, 95]"
"Trust","Teilnehmer A hat Ihnen 2 Punkte übermittelt.","Payback","1","undefined","19","0","6","60","1080","421","5","1","1381","0","legacy","[11, 21, 31, 41, 51, 61, 71, 81, 91, 101, 111, 121, 131, 141, 151, 161, 171, 181, 191, 201, 211, 221, 231, 241, 251, 261, 271, 281, 291, 301, 311, 321, 331, 341, 351, 361, 371, 381, 391, 401, 411, 421, 431, 441, 451, 461, 471, 481, 491, 501, 511, 521, 531, 541, 551, 561, 571, 581, 591, 601, 611, 621, 631, 641, 651, 661, 671, 681, 691, 701, 711, 721, 731, 741, 751, 761, 771, 781, 791, 801, 811, 821, 831, 841, 851, 861, 871, 881, 891, 901, 911, 921, 931, 941, 951, 961, 971, 981, 991, 1001, 1011, 1021, 1031, 1041, 1051, 1061, 1071, 1081, 1091, 1101, 1111, 1121, 1131, 1141, 1151, 1161, 1171, 1181, 1191, 1201, 1211, 1221, 1231, 1241, 1251, 1261, 1271, 1281, 1291, 1301, 1311, 1321, 1331, 1341, 1351, 1361, 1371, 1381]","1104","1920","[960, 960, 960, 960, 960, 960, 960, 960, 960, 960, 960, 960, 960, 960, 960, 960, 960, 960, 960, 960, 960, 960, 960, 960, 960, 959, 958, 958, 957, 957, 954, 954, 951, 950, 947, 944, 940, 937, 927, 920, 913, 903, 885, 872, 857, 842, 805, 789, 770, 753, 720, 707, 696, 686, 671, 663, 660, 656, 649, 644, 638, 633, 618, 613, 607, 600, 586, 580, 574, 566, 552, 545, 537, 531, 518, 511, 502, 495, 473, 464, 453, 443, 423, 414, 403, 395, 380, 375, 367, 362, 350, 344, 337, 331, 319, 311, 305, 300, 288, 285, 280, 275, 268, 266, 263, 260, 246, 243, 237, 231, 220, 215, 210, 208, 201, 201, 199, 198, 195, 195, 194, 193, 192, 192, 192, 192, 192, 192, 192, 192, 192, 192, 192, 192, 192, 192, 192, 192]","[1010, 1010, 1010, 1010, 1010, 1010, 1010, 1010, 1010, 1010, 1010, 1010, 1010, 1010, 1010, 1010, 1010, 1010, 1010, 1010, 1010, 1010, 1010, 1010, 1010, 1010, 1010, 1008, 1006, 1004, 1000, 999, 995, 993, 989, 986, 982, 977, 965, 957, 948, 938, 916, 902, 884, 866, 818, 793, 767, 742, 682, 656, 632, 613, 582, 571, 561, 551, 535, 526, 517, 509, 491, 483, 476, 467, 449, 440, 433, 422, 405, 397, 387, 379, 365, 354, 343, 332, 307, 297, 287, 275, 259, 251, 243, 236, 223, 218, 213, 208, 198, 192, 186, 182, 171, 166, 162, 159, 153, 151, 148, 145, 140, 139, 136, 133, 126, 125, 120, 118, 113, 110, 107, 105, 102, 101, 101, 99, 98, 98, 97, 97, 96, 96, 96, 96, 96, 96, 96, 96, 96, 96, 96, 96, 96, 96, 96, 96]"
"Trust","Teilnehmer A hat Ihnen 2 Punkte übermittelt.","Payback","1","undefined","20","0","6","60","1080","401","5","1","1724","0","legacy","[11, 21, 31, 41, 51, 61, 71, 81, 91, 101, 111, 121, 131, 141, 151, 161, 171, 181, 191, 201, 211, 221, 231, 241, 251, 261, 271, 281, 291, 301, 311, 321, 331, 341, 351, 361, 371, 381, 391, 401, 411, 421, 431, 441, 451, 461, 471, 481, 491, 501, 511, 521, 531, 541, 551, 561, 571, 581, 591, 601, 611, 621, 631, 641, 651, 661, 671, 681, 691, 701, 711, 721, 731, 741, 751, 761, 771, 781, 791, 801, 811, 821, 831, 841, 851, 861, 871, 881, 891, 901, 911, 921, 931, 941, 951, 961, 971, 981, 991, 1001, 1011, 1021, 1031, 1041, 1051, 1061, 1071, 1081, 1091, 1101, 1111, 1121, 1131, 1141, 1151, 1161, 1171, 1181, 1191, 1201, 1211, 1221, 1231, 1241, 1251, 1261, 1271, 1281, 1291, 1301, 1311, 1321, 1331, 1341, 1351, 1361, 1371, 1381, 1391, 1401, 1411, 1421, 1431, 1441, 1451, 1461, 1471, 1481, 1491, 1501, 1511, 1521, 1531, 1541, 1551, 1561, 1571, 1581, 1591, 1601, 1611, 1621, 1631, 1641, 1651, 1661, 1671, 1681, 1691, 1701, 1711, 1721]","1104","1920","[960, 960, 960, 960, 960, 960, 960, 960, 960, 960, 960, 960, 960, 960, 960, 960, 960, 960, 960, 960, 960, 960, 960, 960, 960, 957, 956, 955, 954, 951, 951, 950, 948, 945, 944, 944, 942, 941, 940, 939, 937, 935, 930, 928, 925, 918, 915, 913, 910, 908, 905, 901, 900, 898, 898, 897, 896, 894, 893, 890, 889, 886, 885, 882, 879, 875, 872, 869, 864, 858, 854, 849, 843, 833, 827, 819, 815, 800, 793, 783, 778, 768, 763, 758, 754, 743, 737, 731, 724, 707, 698, 687, 675, 650, 640, 628, 618, 588, 574, 563, 552, 529, 518, 508, 498, 477, 466, 455, 443, 420, 407, 399, 390, 374, 364, 355, 345, 328, 319, 309, 302, 285, 276, 270, 264, 255, 251, 248, 245, 240, 238, 236, 234, 226, 221, 217, 213, 207, 205, 203, 201, 197, 195, 195, 194, 193, 193, 192, 192, 191, 191, 190, 189, 189, 189, 189, 189, 189, 189, 189, 189, 189, 189, 189, 189, 189, 189, 189, 189, 189, 189, 189]","[1010, 1010, 1010, 1010, 1010, 1010, 1010, 1010, 1010, 1010, 1010, 1010, 1010, 1010, 1010, 1010, 1010, 1010, 1010, 1010, 1010, 1010, 1010, 1008, 1008, 1004, 1000, 997, 996, 988, 985, 982, 977, 969, 965, 963, 958, 950, 941, 934, 922, 903, 891, 881, 874, 857, 851, 845, 838, 830, 825, 820, 817, 811, 810, 806, 805, 796, 792, 784, 777, 766, 760, 753, 745, 730, 721, 714, 704, 688, 678, 667, 655, 631, 618, 601, 589, 563, 547, 531, 522, 503, 496, 487, 480, 463, 456, 447, 437, 416, 407, 397, 384, 361, 352, 341, 331, 311, 301, 294, 287, 275, 268, 261, 257, 244, 238, 232, 227, 213, 208, 202, 197, 187, 181, 176, 173, 165, 162, 158, 154, 149, 148, 145, 144, 141, 140, 139, 139, 139, 139, 139, 139, 137, 136, 135, 134, 131, 130, 129, 128, 127, 125, 125, 125, 125, 124, 124, 123, 123, 123, 123, 123, 122, 122, 122, 122, 122, 122, 122, 122, 122, 122, 122, 122, 122, 122, 122, 122, 122, 122, 122]"
"Promise","Wie oft werden Sie die Hälfte zurückgeben?","Promise","1","undefined","20","0","7","60","1080","291","5","1","1224","0","legacy","[11, 21, 31, 41, 51, 61, 71, 81, 91, 101, 111, 121, 131, 141, 151, 161, 171, 181, 191, 201, 211, 221, 231, 241, 251, 261, 271, 281, 291, 301, 311, 321, 331, 341, 351, 361, 371, 381, 391, 401, 411, 421, 431, 441, 451, 461, 471, 481, 491, 501, 511, 521, 531, 541, 551, 561, 571, 581, 591, 601, 611, 621, 631, 641, 651, 661, 671, 681, 691, 701, 711, 721, 731, 741, 751, 761, 771, 781, 791, 801, 811, 821, 831, 841, 851, 861, 871, 881, 891, 901, 911, 921, 931, 941, 951, 961, 971, 981, 991, 1001, 1011, 1021, 1031, 1041, 1051, 1061, 1071, 1081, 1091, 1101, 1111, 1121, 1131, 1141, 1151, 1161, 1171, 1181, 1191, 1201, 1211, 1221]","1104","1920","[960, 960, 960, 960, 960, 960, 960, 960, 960, 960, 960, 960, 960, 960, 960, 960, 960, 959, 958, 955, 954, 953, 951, 949, 948, 946, 945, 941, 939, 935, 931, 919, 910, 904, 895, 886, 880, 874, 870, 862, 856, 853, 848, 837, 825, 816, 805, 767, 744, 716, 689, 628, 599, 573, 549, 501, 481, 464, 452, 430, 418, 407, 395, 372, 361, 348, 340, 324, 317, 314, 308, 302, 301, 298, 297, 291, 289, 285, 280, 269, 264, 258, 252, 243, 239, 234, 230, 223, 221, 217, 215, 212, 211, 210, 210, 208, 208, 207, 206, 206, 206, 206, 206, 206, 206, 206, 206, 206, 206, 206, 206, 206, 206, 206, 206, 206, 206, 206, 206, 206, 206, 206]","[1010, 1010, 1010, 1010, 1010, 1010, 1010, 1010, 1010, 1010, 1010, 1010, 1010, 1010, 1010, 1010, 1011, 1011, 1009, 1003, 1000, 998, 994, 985, 981, 974, 967, 946, 932, 914, 895, 861, 837, 825, 808, 784, 773, 764, 756, 743, 734, 729, 722, 707, 691, 679, 662, 609, 570, 531, 492, 413, 377, 345, 314, 259, 235, 217, 202, 181, 171, 162, 151, 134, 125, 115, 107, 93, 87, 85, 81, 77, 76, 75, 75, 72, 71, 71, 69, 66, 64, 63, 61, 58, 57, 57, 55, 52, 52, 50, 50, 50, 50, 50, 49, 49, 49, 49, 49, 49, 49, 49, 49, 49, 49, 49, 49, 49, 49, 49, 49, 49, 49, 49, 49, 49, 49, 49, 49, 49, 49, 49]"
"Trust","Teilnehmer A hat Ihnen 2 Punkte übermittelt.","Payback","1","undefined","21","0","7","60","1080","391","5","1","1678","0","legacy","[11, 21, 31, 41, 51, 61, 71, 81, 91, 101, 111, 121, 131, 141, 151, 161, 171, 181, 191, 201, 211, 221, 231, 241, 251, 261, 271, 281, 291, 301, 311, 321, 331, 341, 351, 361, 371, 381, 391, 401, 411, 421, 431, 441, 451, 461, 471, 481, 491, 501, 511, 521, 531, 541, 551, 561, 571, 581, 591, 601, 611, 621, 631, 641, 651, 661, 671, 681, 691, 701, 711, 721, 731, 741, 751, 761, 771, 781, 791, 801, 811, 821, 831, 841, 851, 861, 871, 881, 891, 901, 911, 921, 931, 941, 951, 961, 971, 981, 991, 1001, 1011, 1021, 1031, 1041, 1051, 1061, 1071, 1081, 1091, 1101, 1111, 1121, 1131, 1141, 1151, 1161, 1171, 1181, 1191, 1201, 1211, 1221, 1231, 1241, 1251, 1261, 1271, 1281, 1291, 1301, 1311, 1321, 1331, 1341, 1351, 1361, 1371, 1381, 1391, 1401, 1411, 1421, 1431, 1441, 1451, 1461, 1471, 1481, 1491, 1501, 1511, 1521, 1531, 1541, 1551, 1561, 1571, 1581, 1591, 1601, 1611, 1621, 1631, 1641, 1651, 1661, 1671]","1104","1920","[960, 960, 960, 960, 960, 960, 960, 960, 960, 960, 960, 960, 960, 960, 960, 960, 960, 960, 960, 960, 960, 960, 958, 957, 955, 953, 952, 950, 950, 949, 948, 948, 948, 946, 944, 944, 943, 942, 939, 939, 937, 936, 934, 932, 931, 929, 924, 921, 918, 914, 908, 904, 902, 898, 886, 877, 868, 855, 828, 813, 796, 786, 762, 750, 740, 731, 719, 713, 711, 706, 697, 693, 689, 688, 678, 674, 671, 668, 658, 653, 647, 642, 625, 617, 606, 592, 569, 558, 547, 533, 508, 491, 477, 460, 429, 416, 405, 392, 368, 356, 343, 332, 307, 292, 276, 264, 241, 232, 223, 213, 205, 201, 198, 194, 189, 187, 186, 184, 182, 180, 180, 179, 177, 176, 175, 175, 174, 174, 174, 174, 174, 174, 174, 174, 174, 174, 174, 174, 174, 174, 174, 174, 174, 174, 174, 174, 174, 174, 174, 174, 174, 174, 174, 174, 174, 174, 174, 174, 174, 174, 174, 174, 174, 174, 174, 174, 174]","[1010, 1010, 1010, 1010, 1010, 1010, 1010, 1010, 1010, 1010, 1010, 1010, 1010, 1010, 1010, 1010, 1010, 1010, 1010, 1009, 1007, 1005, 1000, 998, 993, 990, 982, 978, 974, 970, 964, 961, 958, 953, 949, 945, 944, 940, 931, 926, 919, 912, 896, 887, 880, 870, 853, 843, 835, 825, 805, 794, 784, 772, 742, 722, 703, 679, 623, 596, 569, 550, 505, 485, 467, 450, 429, 420, 418, 411, 399, 395, 389, 385, 374, 368, 363, 359, 347, 341, 334, 328, 311, 306, 299, 288, 271, 265, 257, 247, 229, 216, 207, 194, 172, 163, 154, 146, 130, 120, 114, 106, 89, 82, 72, 66, 55, 52, 48, 44, 43, 42, 40, 39, 39, 39, 39, 39, 39, 39, 39, 39, 39, 39, 39, 39, 39, 39, 39, 39, 39, 39, 39, 39, 39, 39, 39, 39, 39, 39, 39, 39, 39, 39, 39, 39, 39, 39, 39, 39, 39, 39, 39, 39, 39, 39, 39, 39, 39, 39, 39, 39, 39, 39, 39, 39, 39]"
"Trust","Teilnehmer A hat Ihnen 2 Punkte übermittelt.","Payback","1","undefined","22","0","7","60","1080","351","5","1","1727","0","legacy","[11, 21, 31, 41, 51, 61, 71, 81, 91, 101, 111, 121, 131, 141, 151, 161, 171, 181, 191, 201, 211, 221, 231, 241, 251, 261, 271, 281, 291, 301, 311, 321, 331, 341, 351, 361, 371, 381, 391, 401, 411, 421, 431, 441, 451, 461, 471, 481, 491, 501, 511, 521, 531, 541, 551, 561, 571, 581, 591, 601, 611, 621, 631, 641, 651, 661, 671, 681, 691, 701, 711, 721, 731, 741, 751, 761, 771, 781, 791, 801, 811, 821, 831, 841, 851, 861, 871, 881, 891, 901, 911, 921, 931, 941, 951, 961, 971, 981, 991, 1001, 1011, 1021, 1031, 1041, 1051, 1061, 1071, 1081, 1091, 1101, 1111, 1121, 1131, 1141, 1151, 1161, 1171, 1181, 1191, 1201, 1211, 1221, 1231, 1241, 1251, 1261, 1271, 1281, 1291, 1301, 1311, 1321, 1331, 1341, 1351, 1361, 1371, 1381, 1391, 1401, 1411, 1421, 1431, 1441, 1451, 1461, 1471, 1481, 1491, 1501, 1511, 1521, 1531, 1541, 1551, 1561, 1571, 1581, 1591, 1601, 1611, 1621, 1631, 1641, 1651, 1661, 1671, 1681, 1691, 1701, 1711, 1721]","1104","1920","[960, 960, 960, 960, 960, 960, 960, 960, 960, 960, 960, 960, 960, 960, 960, 960, 960, 960, 960, 960, 960, 960, 960, 960, 960, 959, 959, 955, 955, 954, 953, 949, 947, 942, 935, 922, 912, 898, 883, 850, 834, 815, 799, 775, 767, 759, 753, 741, 737, 732, 726, 717, 713, 706, 698, 683, 671, 660, 650, 632, 618, 602, 585, 553, 537, 523, 514, 496, 485, 479, 471, 457, 450, 443, 438, 431, 426, 421, 417, 409, 405, 400, 395, 389, 385, 382, 378, 367, 361, 352, 346, 330, 323, 315, 309, 294, 288, 283, 277, 266, 259, 254, 248, 243, 239, 237, 236, 232, 231, 230, 229, 226, 225, 223, 222, 218, 216, 215, 213, 211, 209, 209, 208, 208, 206, 206, 206, 206, 206, 206, 206, 206, 206, 206, 206, 206, 206, 206, 206, 206, 206, 206, 206, 206, 206, 206, 206, 206, 206, 206, 206, 206, 206, 206, 206, 206, 206, 206, 206, 206, 206, 206, 206, 206, 206, 206, 206, 206, 206, 206, 206, 206]","[1010, 1010, 1010, 1010, 1010, 1010, 1010, 1010, 1010, 1010, 1010, 1010, 1010, 1010, 1010, 1010, 1010, 1010, 1010, 1010, 1010, 1010, 1010, 1007, 1004, 1001, 997, 991, 988, 982, 978, 966, 959, 948, 933, 902, 884, 862, 837, 787, 767, 739, 716, 682, 671, 660, 650, 634, 628, 621, 614, 600, 594, 586, 576, 559, 549, 539, 529, 508, 491, 470, 443, 400, 378, 360, 348, 326, 313, 303, 294, 279, 270, 263, 257, 249, 244, 239, 235, 229, 226, 223, 220, 215, 212, 211, 207, 202, 198, 195, 191, 181, 177, 174, 169, 161, 158, 155, 151, 145, 142, 140, 137, 134, 132, 131, 131, 129, 128, 128, 127, 125, 125, 125, 124, 122, 122, 121, 120, 119, 118, 118, 118, 117, 117, 117, 117, 117, 117, 117, 117, 117, 117, 117, 117, 117, 117, 117, 117, 117, 117, 117, 117, 117, 117, 117, 117, 117, 117, 117, 117, 117, 117, 117, 117, 117, 117, 117, 117, 117, 117, 117, 117, 117, 117, 117, 117, 117, 117, 117, 117, 117]"
"Trust","Teilnehmer A hat Ihnen 2 Punkte übermittelt.","Payback","1","undefined","23","0","7","60","1080","361","5","1","1548","0","legacy","[11, 21, 31, 41, 51, 61, 71, 81, 91, 101, 111, 121, 131, 141, 151, 161, 171, 181, 191, 201, 211, 221, 231, 241, 251, 261, 271, 281, 291, 301, 311, 321, 331, 341, 351, 361, 371, 381, 391, 401, 411, 421, 431, 441, 451, 461, 471, 481, 491, 501, 511, 521, 531, 541, 551, 561, 571, 581, 591, 601, 611, 621, 631, 641, 651, 661, 671, 681, 691, 701, 711, 721, 731, 741, 751, 761, 771, 781, 791, 801, 811, 821, 831, 841, 851, 861, 871, 881, 891, 901, 911, 921, 931, 941, 951, 961, 971, 981, 991, 1001, 1011, 1021, 1031, 1041, 1051, 1061, 1071, 1081, 1091, 1101, 1111, 1121, 1131, 1141, 1151, 1161, 1171, 1181, 1191, 1201, 1211, 1221, 1231, 1241, 1251, 1261, 1271, 1281, 1291, 1301, 1311, 1321, 1331, 1341, 1351, 1361, 1371, 1381, 1391, 1401, 1411, 1421, 1431, 1441, 1451, 1461, 1471, 1481, 1491, 1501, 1511, 1521, 1531, 1541]","1104","1920","[960, 960, 960, 960, 960, 960, 960, 960, 960, 960, 960, 960, 960, 960, 960, 960, 960, 960, 960, 960, 960, 960, 960, 960, 960, 960, 960, 960, 960, 960, 960, 959, 956, 952, 947, 944, 940, 932, 926, 922, 915, 904, 897, 893, 888, 881, 877, 873, 867, 857, 852, 846, 840, 829, 824, 817, 811, 799, 791, 784, 777, 761, 754, 747, 739, 725, 720, 714, 709, 693, 687, 679, 671, 653, 643, 633, 624, 607, 598, 592, 587, 572, 566, 561, 554, 543, 537, 532, 526, 513, 508, 504, 498, 488, 481, 474, 468, 458, 450, 445, 437, 427, 419, 412, 405, 392, 386, 379, 371, 359, 354, 350, 345, 334, 329, 323, 316, 304, 295, 290, 284, 274, 269, 264, 258, 246, 244, 240, 236, 233, 230, 230, 229, 226, 225, 223, 222, 218, 218, 216, 215, 213, 212, 212, 211, 211, 211, 211, 211, 211, 211, 211, 211, 211]","[1010, 1010, 1010, 1010, 1010, 1010, 1010, 1010, 1010, 1010, 1010, 1010, 1010, 1010, 1010, 1010, 1010, 1010, 1010, 1010, 1010, 1010, 1010, 1010, 1010, 1004, 1002, 998, 994, 986, 980, 976, 970, 954, 944, 937, 928, 908, 897, 887, 876, 855, 845, 835, 827, 812, 803, 797, 787, 769, 761, 751, 740, 723, 715, 705, 696, 680, 668, 659, 649, 627, 618, 608, 596, 575, 565, 556, 544, 523, 514, 502, 493, 478, 469, 459, 453, 440, 432, 427, 422, 410, 404, 399, 394, 384, 379, 375, 369, 359, 353, 349, 343, 335, 328, 323, 317, 308, 301, 296, 289, 275, 266, 258, 250, 232, 221, 214, 205, 194, 189, 188, 184, 177, 173, 169, 164, 157, 153, 151, 147, 142, 139, 137, 135, 130, 129, 127, 125, 123, 122, 122, 120, 119, 117, 116, 114, 112, 111, 109, 108, 105, 104, 104, 103, 103, 103, 103, 103, 103, 103, 103, 103, 103]"
CHF,TotCHF,final_payoff,sum
"10","30","[5, 5, 5, 5]","20"
