Condition,PromiseStage,Stage,accuracy,avg_rt,count_decision_sequence,count_loop1,count_trial_sequence,font_size,height,init_time,payoff,response,rt,subject_nr,synth_backend,tTrajectory,time_experiment,width,xTrajectory,yTrajectory
"Promise","Wie oft werden Sie die Hälfte zurückgeben?","Promise","1","undefined","NA","0","0","60","1080","201","NA","1","1318","0","legacy","[11, 21, 31, 41, 51, 61, 71, 81, 91, 101, 111, 121, 131, 141, 151, 161, 171, 181, 191, 201, 211, 221, 231, 241, 251, 261, 271, 281, 291, 301, 311, 321, 331, 341, 351, 361, 371, 381, 391, 401, 411, 421, 431, 441, 451, 461, 471, 481, 491, 501, 511, 521, 531, 541, 551, 561, 571, 581, 591, 601, 611, 621, 631, 641, 651, 661, 671, 681, 691, 701, 711, 721, 731, 741, 751, 761, 771, 781, 791, 801, 811, 821, 831, 841, 851, 861, 871, 881, 891, 901, 911, 921, 931, 941, 951, 961, 971, 981, 991, 1001, 1011, 1021, 1031, 1041, 1051, 1061, 1071, 1081, 1091, 1101, 1111, 1121, 1131, 1141, 1151, 1161, 1171, 1181, 1191, 1201, 1211, 1221, 1231, 1241, 1251, 1261, 1271, 1281, 1291, 1301, 1311]","1167","1920","[960, 960, 960, 960, 960, 960, 960, 960, 960, 960, 960, 960, 960, 960, 956, 953, 947, 939, 918, 902, 879, 857, 805, 777, 748, 723, 661, 631, 600, 571, 514, 491, 467, 441, 405, 384, 366, 341, 307, 290, 277, 263, 245, 240, 237, 233, 230, 229, 228, 228, 224, 222, 218, 214, 207, 204, 201, 198, 193, 189, 187, 185, 184, 184, 183, 183, 183, 183, 183, 183, 183, 183, 183, 183, 183, 183, 183, 183, 183, 183, 183, 183, 183, 183, 183, 183, 183, 183, 183, 183, 183, 183, 183, 183, 183, 183, 183, 183, 183, 183, 183, 183, 183, 183, 183, 183, 183, 183, 183, 183, 183, 183, 183, 183, 183, 183, 183, 183, 183, 183, 183, 183, 183, 183, 183, 183, 183, 183, 183, 183, 183]","[1010, 1010, 1010, 1010, 1010, 1010, 1010, 1010, 1010, 1010, 1010, 1010, 1010, 1010, 1002, 997, 990, 979, 955, 932, 894, 843, 740, 678, 621, 569, 468, 426, 389, 352, 296, 274, 254, 229, 197, 180, 165, 148, 124, 111, 104, 97, 87, 84, 83, 82, 80, 80, 80, 80, 78, 77, 76, 73, 71, 69, 68, 66, 62, 60, 58, 57, 56, 56, 56, 56, 56, 56, 56, 56, 56, 56, 56, 56, 56, 56, 56, 56, 56, 56, 56, 56, 56, 56, 56, 56, 56, 56, 56, 56, 56, 56, 56, 56, 56, 56, 56, 56, 56, 56, 56, 56, 56, 56, 56, 56, 56, 56, 56, 56, 56, 56, 56, 56, 56, 56, 56, 56, 56, 56, 56, 56, 56, 56, 56, 56, 56, 56, 56, 56, 56]"
Cond,DecisionB,Stage,accuracy,avg_rt,count_decision_sequence,count_loop1,count_trial_sequence,font_size,height,init_time,payoff,response,rt,subject_nr,synth_backend,tTrajectory,time_experiment,width,xTrajectory,yTrajectory
"Trust","Teilnehmer A hat Ihnen 2 Punkte übermittelt.","Payback","1","undefined","0","0","0","60","1080","751","5","1","2375","0","legacy","[11, 21, 31, 41, 51, 61, 71, 81, 91, 101, 111, 121, 131, 141, 151, 161, 171, 181, 191, 201, 211, 221, 231, 241, 251, 261, 271, 281, 291, 301, 311, 321, 331, 341, 351, 361, 371, 381, 391, 401, 411, 421, 431, 441, 451, 461, 471, 481, 491, 501, 511, 521, 531, 541, 551, 561, 571, 581, 591, 601, 611, 621, 631, 641, 651, 661, 671, 681, 691, 701, 711, 721, 731, 741, 751, 761, 771, 781, 791, 801, 811, 821, 831, 841, 851, 861, 871, 881, 891, 901, 911, 921, 931, 941, 951, 961, 971, 981, 991, 1001, 1011, 1021, 1031, 1041, 1051, 1061, 1071, 1081, 1091, 1101, 1111, 1121, 1131, 1141, 1151, 1161, 1171, 1181, 1191, 1201, 1211, 1221, 1231, 1241, 1251, 1261, 1271, 1281, 1291, 1301, 1311, 1321, 1331, 1341, 1351, 1361, 1371, 1381, 1391, 1401, 1411, 1421, 1431, 1441, 1451, 1461, 1471, 1481, 1491, 1501, 1511, 1521, 1531, 1541, 1551, 1561, 1571, 1581, 1591, 1601, 1611, 1621, 1631, 1641, 1651, 1661, 1671, 1681, 1691, 1701, 1711, 1721, 1731, 1741, 1751, 1761, 1771, 1781, 1791, 1801, 1811, 1821, 1831, 1841, 1851, 1861, 1871, 1881, 1891, 1901, 1911, 1921, 1931, 1941, 1951, 1961, 1971, 1981, 1991, 2001, 2011, 2021, 2031, 2041, 2051, 2061, 2071, 2081, 2091, 2101, 2111, 2121, 2131, 2141, 2151, 2161, 2171, 2181, 2191, 2201, 2211, 2221, 2231, 2241, 2251, 2261, 2271, 2281, 2291, 2301, 2311, 2321, 2331, 2341, 2351, 2361, 2371]","1167","1920","[960, 960, 960, 960, 960, 960, 960, 960, 960, 960, 960, 960, 960, 960, 960, 960, 960, 960, 960, 960, 960, 960, 960, 960, 960, 960, 960, 960, 960, 960, 960, 960, 960, 960, 960, 960, 960, 960, 960, 960, 960, 960, 960, 960, 960, 960, 960, 960, 960, 960, 960, 960, 960, 960, 960, 960, 960, 959, 958, 956, 954, 951, 950, 946, 944, 941, 939, 934, 931, 927, 923, 915, 910, 906, 898, 876, 861, 841, 818, 763, 740, 704, 677, 601, 575, 541, 510, 458, 433, 408, 391, 365, 362, 362, 362, 362, 362, 362, 362, 362, 362, 362, 362, 362, 362, 362, 362, 362, 362, 362, 362, 362, 362, 362, 362, 362, 362, 362, 362, 362, 362, 362, 362, 362, 362, 362, 362, 362, 362, 362, 362, 362, 362, 362, 362, 362, 362, 362, 361, 361, 361, 361, 361, 361, 360, 360, 360, 360, 360, 360, 360, 360, 360, 360, 360, 359, 358, 357, 357, 355, 355, 354, 354, 351, 350, 349, 347, 344, 339, 338, 335, 332, 329, 326, 324, 321, 320, 318, 315, 311, 309, 307, 305, 299, 295, 293, 291, 284, 280, 277, 273, 267, 264, 261, 258, 254, 252, 249, 247, 237, 232, 230, 227, 220, 218, 213, 211, 207, 205, 205, 205, 205, 205, 205, 205, 205, 205, 205, 205, 205, 205, 205, 205, 205, 205, 205, 205, 205, 205, 205, 205, 205, 205, 205, 205, 205, 205]","[1010, 1010, 1010, 1010, 1010, 1010, 1010, 1010, 1010, 1010, 1010, 1010, 1010, 1010, 1010, 1010, 1010, 1010, 1010, 1010, 1010, 1010, 1010, 1010, 1010, 1010, 1010, 1010, 1010, 1010, 1010, 1010, 1010, 1010, 1010, 1010, 1010, 1010, 1010, 1010, 1010, 1010, 1010, 1010, 1010, 1010, 1010, 1010, 1010, 1010, 1010, 1010, 1010, 1010, 1010, 1009, 1006, 1004, 1002, 1000, 998, 996, 995, 993, 990, 989, 987, 984, 981, 976, 971, 957, 948, 941, 928, 896, 879, 855, 829, 768, 739, 702, 677, 614, 591, 567, 545, 511, 497, 482, 469, 449, 448, 448, 448, 448, 448, 448, 448, 448, 448, 448, 448, 448, 448, 448, 448, 448, 448, 448, 448, 448, 448, 448, 448, 448, 448, 448, 448, 448, 448, 448, 448, 448, 448, 448, 448, 448, 448, 448, 448, 448, 448, 448, 448, 448, 448, 448, 446, 443, 441, 438, 435, 431, 429, 428, 428, 424, 423, 421, 420, 418, 416, 414, 413, 401, 396, 392, 389, 382, 378, 374, 368, 356, 349, 342, 335, 325, 316, 306, 299, 286, 280, 274, 269, 258, 254, 250, 245, 233, 231, 224, 220, 210, 205, 200, 198, 187, 183, 179, 174, 165, 159, 156, 150, 140, 137, 131, 126, 114, 109, 105, 100, 91, 88, 82, 79, 74, 71, 71, 71, 71, 71, 71, 71, 71, 71, 71, 71, 71, 71, 71, 71, 71, 71, 71, 71, 71, 71, 71, 71, 71, 71, 71, 71, 71, 71]"
"Trust","Teilnehmer A hat Ihnen 2 Punkte übermittelt.","Payback","1","undefined","1","0","0","60","1080","951","5","1","2214","0","legacy","[11, 21, 31, 41, 51, 61, 71, 81, 91, 101, 111, 121, 131, 141, 151, 161, 171, 181, 191, 201, 211, 221, 231, 241, 251, 261, 271, 281, 291, 301, 311, 321, 331, 341, 351, 361, 371, 381, 391, 401, 411, 421, 431, 441, 451, 461, 471, 481, 491, 501, 511, 521, 531, 541, 551, 561, 571, 581, 591, 601, 611, 621, 631, 641, 651, 661, 671, 681, 691, 701, 711, 721, 731, 741, 751, 761, 771, 781, 791, 801, 811, 821, 831, 841, 851, 861, 871, 881, 891, 901, 911, 921, 931, 941, 951, 961, 971, 981, 991, 1001, 1011, 1021, 1031, 1041, 1051, 1061, 1071, 1081, 1091, 1101, 1111, 1121, 1131, 1141, 1151, 1161, 1171, 1181, 1191, 1201, 1211, 1221, 1231, 1241, 1251, 1261, 1271, 1281, 1291, 1301, 1311, 1321, 1331, 1341, 1351, 1361, 1371, 1381, 1391, 1401, 1411, 1421, 1431, 1441, 1451, 1461, 1471, 1481, 1491, 1501, 1511, 1521, 1531, 1541, 1551, 1561, 1571, 1581, 1591, 1601, 1611, 1621, 1631, 1641, 1651, 1661, 1671, 1681, 1691, 1701, 1711, 1721, 1731, 1741, 1751, 1761, 1771, 1781, 1791, 1801, 1811, 1821, 1831, 1841, 1851, 1861, 1871, 1881, 1891, 1901, 1911, 1921, 1931, 1941, 1951, 1961, 1971, 1981, 1991, 2001, 2011, 2021, 2031, 2041, 2051, 2061, 2071, 2081, 2091, 2101, 2111, 2121, 2131, 2141, 2151, 2161, 2171, 2181, 2191, 2201, 2211]","1167","1920","[960, 960, 960, 960, 960, 960, 960, 960, 960, 960, 960, 960, 960, 960, 960, 960, 960, 960, 960, 960, 960, 960, 960, 960, 960, 960, 960, 960, 960, 960, 960, 960, 960, 960, 960, 960, 960, 960, 960, 960, 960, 960, 960, 960, 960, 960, 960, 960, 961, 961, 961, 961, 961, 961, 961, 961, 961, 961, 961, 961, 961, 961, 961, 961, 961, 961, 961, 961, 961, 961, 961, 961, 961, 961, 960, 960, 960, 960, 960, 960, 959, 959, 958, 958, 957, 956, 955, 954, 953, 952, 947, 944, 939, 932, 917, 906, 894, 878, 829, 796, 756, 719, 642, 602, 570, 543, 478, 450, 419, 397, 350, 335, 318, 295, 263, 250, 234, 221, 195, 180, 170, 162, 148, 141, 137, 136, 133, 132, 132, 132, 132, 132, 132, 132, 132, 132, 132, 132, 132, 132, 132, 132, 132, 132, 132, 132, 132, 132, 132, 132, 132, 132, 132, 132, 132, 132, 132, 132, 132, 132, 132, 133, 133, 133, 133, 133, 133, 133, 133, 133, 135, 135, 135, 136, 136, 136, 136, 137, 137, 137, 137, 137, 137, 137, 137, 137, 137, 137, 137, 137, 137, 137, 137, 137, 137, 137, 137, 137, 137, 137, 137, 137, 137, 137, 138, 140, 145, 148, 152, 155, 161, 162, 162, 163, 163, 163, 163, 163, 163, 163, 163]","[1010, 1010, 1010, 1010, 1010, 1010, 1010, 1010, 1010, 1010, 1010, 1010, 1010, 1010, 1010, 1010, 1010, 1010, 1010, 1010, 1010, 1010, 1010, 1010, 1010, 1010, 1010, 1010, 1010, 1010, 1010, 1010, 1010, 1010, 1010, 1010, 1010, 1010, 1010, 1010, 1010, 1010, 1010, 1010, 1010, 1010, 1009, 1009, 1008, 1008, 1008, 1008, 1008, 1008, 1008, 1007, 1007, 1006, 1006, 1005, 1005, 1005, 1005, 1005, 1005, 1005, 1005, 1005, 1005, 1005, 1005, 1005, 1004, 1004, 1004, 1004, 1004, 1004, 1003, 1003, 1003, 1003, 1001, 1001, 1001, 1000, 998, 998, 996, 994, 987, 980, 971, 958, 935, 920, 898, 876, 816, 781, 745, 716, 648, 617, 587, 560, 483, 451, 414, 390, 340, 322, 302, 275, 237, 224, 204, 187, 152, 134, 120, 114, 94, 84, 76, 72, 62, 58, 55, 54, 53, 52, 52, 52, 51, 50, 50, 49, 49, 48, 48, 47, 46, 46, 45, 44, 44, 43, 43, 43, 42, 41, 41, 41, 40, 40, 40, 40, 40, 40, 40, 38, 38, 38, 38, 38, 38, 37, 37, 37, 36, 35, 35, 34, 34, 34, 34, 33, 33, 33, 33, 33, 33, 33, 33, 33, 33, 33, 33, 33, 33, 33, 33, 33, 33, 33, 33, 33, 33, 33, 33, 33, 33, 33, 33, 33, 39, 45, 53, 57, 67, 69, 71, 72, 72, 72, 72, 72, 72, 72, 72]"
"NoTrust","Teilnehmer A hat Ihnen keine 2 Punkte übermittelt.","Payback","1","undefined","2","0","0","60","1080","951","0","1","2214","0","legacy","[11, 21, 31, 41, 51, 61, 71, 81, 91, 101, 111, 121, 131, 141, 151, 161, 171, 181, 191, 201, 211, 221, 231, 241, 251, 261, 271, 281, 291, 301, 311, 321, 331, 341, 351, 361, 371, 381, 391, 401, 411, 421, 431, 441, 451, 461, 471, 481, 491, 501, 511, 521, 531, 541, 551, 561, 571, 581, 591, 601, 611, 621, 631, 641, 651, 661, 671, 681, 691, 701, 711, 721, 731, 741, 751, 761, 771, 781, 791, 801, 811, 821, 831, 841, 851, 861, 871, 881, 891, 901, 911, 921, 931, 941, 951, 961, 971, 981, 991, 1001, 1011, 1021, 1031, 1041, 1051, 1061, 1071, 1081, 1091, 1101, 1111, 1121, 1131, 1141, 1151, 1161, 1171, 1181, 1191, 1201, 1211, 1221, 1231, 1241, 1251, 1261, 1271, 1281, 1291, 1301, 1311, 1321, 1331, 1341, 1351, 1361, 1371, 1381, 1391, 1401, 1411, 1421, 1431, 1441, 1451, 1461, 1471, 1481, 1491, 1501, 1511, 1521, 1531, 1541, 1551, 1561, 1571, 1581, 1591, 1601, 1611, 1621, 1631, 1641, 1651, 1661, 1671, 1681, 1691, 1701, 1711, 1721, 1731, 1741, 1751, 1761, 1771, 1781, 1791, 1801, 1811, 1821, 1831, 1841, 1851, 1861, 1871, 1881, 1891, 1901, 1911, 1921, 1931, 1941, 1951, 1961, 1971, 1981, 1991, 2001, 2011, 2021, 2031, 2041, 2051, 2061, 2071, 2081, 2091, 2101, 2111, 2121, 2131, 2141, 2151, 2161, 2171, 2181, 2191, 2201, 2211]","1167","1920","[960, 960, 960, 960, 960, 960, 960, 960, 960, 960, 960, 960, 960, 960, 960, 960, 960, 960, 960, 960, 960, 960, 960, 960, 960, 960, 960, 960, 960, 960, 960, 960, 960, 960, 960, 960, 960, 960, 960, 960, 960, 960, 960, 960, 960, 960, 960, 960, 961, 961, 961, 961, 961, 961, 961, 961, 961, 961, 961, 961, 961, 961, 961, 961, 961, 961, 961, 961, 961, 961, 961, 961, 961, 961, 960, 960, 960, 960, 960, 960, 959, 959, 958, 958, 957, 956, 955, 954, 953, 952, 947, 944, 939, 932, 917, 906, 894, 878, 829, 796, 756, 719, 642, 602, 570, 543, 478, 450, 419, 397, 350, 335, 318, 295, 263, 250, 234, 221, 195, 180, 170, 162, 148, 141, 137, 136, 133, 132, 132, 132, 132, 132, 132, 132, 132, 132, 132, 132, 132, 132, 132, 132, 132, 132, 132, 132, 132, 132, 132, 132, 132, 132, 132, 132, 132, 132, 132, 132, 132, 132, 132, 133, 133, 133, 133, 133, 133, 133, 133, 133, 135, 135, 135, 136, 136, 136, 136, 137, 137, 137, 137, 137, 137, 137, 137, 137, 137, 137, 137, 137, 137, 137, 137, 137, 137, 137, 137, 137, 137, 137, 137, 137, 137, 137, 138, 140, 145, 148, 152, 155, 161, 162, 162, 163, 163, 163, 163, 163, 163, 163, 163]","[1010, 1010, 1010, 1010, 1010, 1010, 1010, 1010, 1010, 1010, 1010, 1010, 1010, 1010, 1010, 1010, 1010, 1010, 1010, 1010, 1010, 1010, 1010, 1010, 1010, 1010, 1010, 1010, 1010, 1010, 1010, 1010, 1010, 1010, 1010, 1010, 1010, 1010, 1010, 1010, 1010, 1010, 1010, 1010, 1010, 1010, 1009, 1009, 1008, 1008, 1008, 1008, 1008, 1008, 1008, 1007, 1007, 1006, 1006, 1005, 1005, 1005, 1005, 1005, 1005, 1005, 1005, 1005, 1005, 1005, 1005, 1005, 1004, 1004, 1004, 1004, 1004, 1004, 1003, 1003, 1003, 1003, 1001, 1001, 1001, 1000, 998, 998, 996, 994, 987, 980, 971, 958, 935, 920, 898, 876, 816, 781, 745, 716, 648, 617, 587, 560, 483, 451, 414, 390, 340, 322, 302, 275, 237, 224, 204, 187, 152, 134, 120, 114, 94, 84, 76, 72, 62, 58, 55, 54, 53, 52, 52, 52, 51, 50, 50, 49, 49, 48, 48, 47, 46, 46, 45, 44, 44, 43, 43, 43, 42, 41, 41, 41, 40, 40, 40, 40, 40, 40, 40, 38, 38, 38, 38, 38, 38, 37, 37, 37, 36, 35, 35, 34, 34, 34, 34, 33, 33, 33, 33, 33, 33, 33, 33, 33, 33, 33, 33, 33, 33, 33, 33, 33, 33, 33, 33, 33, 33, 33, 33, 33, 33, 33, 33, 33, 39, 45, 53, 57, 67, 69, 71, 72, 72, 72, 72, 72, 72, 72, 72]"
"Promise","Wie oft werden Sie die Hälfte zurückgeben?","Promise","1","undefined","2","0","1","60","1080","1201","0","1","2240","0","legacy","[11, 21, 31, 41, 51, 61, 71, 81, 91, 101, 111, 121, 131, 141, 151, 161, 171, 181, 191, 201, 211, 221, 231, 241, 251, 261, 271, 281, 291, 301, 311, 321, 331, 341, 351, 361, 371, 381, 391, 401, 411, 421, 431, 441, 451, 461, 471, 481, 491, 501, 511, 521, 531, 541, 551, 561, 571, 581, 591, 601, 611, 621, 631, 641, 651, 661, 671, 681, 691, 701, 711, 721, 731, 741, 751, 761, 771, 781, 791, 801, 811, 821, 831, 841, 851, 861, 871, 881, 891, 901, 911, 921, 931, 941, 951, 961, 971, 981, 991, 1001, 1011, 1021, 1031, 1041, 1051, 1061, 1071, 1081, 1091, 1101, 1111, 1121, 1131, 1141, 1151, 1161, 1171, 1181, 1191, 1201, 1211, 1221, 1231, 1241, 1251, 1261, 1271, 1281, 1291, 1301, 1311, 1321, 1331, 1341, 1351, 1361, 1371, 1381, 1391, 1401, 1411, 1421, 1431, 1441, 1451, 1461, 1471, 1481, 1491, 1501, 1511, 1521, 1531, 1541, 1551, 1561, 1571, 1581, 1591, 1601, 1611, 1621, 1631, 1641, 1651, 1661, 1671, 1681, 1691, 1701, 1711, 1721, 1731, 1741, 1751, 1761, 1771, 1781, 1791, 1801, 1811, 1821, 1831, 1841, 1851, 1861, 1871, 1881, 1891, 1901, 1911, 1921, 1931, 1941, 1951, 1961, 1971, 1981, 1991, 2001, 2011, 2021, 2031, 2041, 2051, 2061, 2071, 2081, 2091, 2101, 2111, 2121, 2131, 2141, 2151, 2161, 2171, 2181, 2191, 2201, 2211, 2221, 2231]","1167","1920","[960, 960, 960, 960, 960, 960, 960, 960, 960, 960, 960, 960, 960, 960, 960, 960, 960, 960, 960, 960, 960, 960, 960, 960, 960, 960, 960, 960, 960, 960, 960, 960, 960, 960, 960, 960, 960, 960, 960, 960, 960, 960, 960, 960, 960, 960, 960, 960, 960, 960, 960, 960, 960, 960, 960, 960, 960, 960, 960, 960, 960, 960, 960, 960, 960, 960, 960, 960, 960, 960, 960, 960, 960, 960, 960, 958, 957, 957, 957, 957, 957, 957, 957, 957, 957, 957, 957, 957, 957, 957, 957, 957, 957, 957, 957, 957, 957, 957, 957, 957, 957, 957, 957, 957, 957, 957, 957, 957, 957, 957, 957, 957, 957, 956, 956, 953, 951, 944, 935, 914, 901, 879, 850, 787, 753, 722, 694, 647, 629, 608, 586, 533, 504, 473, 444, 391, 367, 346, 328, 309, 297, 291, 283, 273, 268, 266, 262, 257, 256, 254, 252, 249, 246, 245, 241, 235, 233, 231, 228, 220, 215, 211, 209, 204, 201, 199, 196, 188, 186, 183, 181, 179, 179, 178, 178, 178, 178, 178, 178, 180, 181, 183, 183, 183, 183, 184, 184, 184, 184, 184, 184, 184, 184, 184, 184, 184, 184, 184, 184, 184, 184, 184, 184, 184, 184, 184, 184, 184, 184, 184, 184, 184, 184, 184, 184, 184, 184, 184, 184, 184, 184, 184, 184]","[1010, 1010, 1010, 1010, 1010, 1010, 1010, 1010, 1010, 1010, 1010, 1010, 1010, 1010, 1010, 1010, 1010, 1010, 1010, 1010, 1010, 1010, 1010, 1010, 1010, 1010, 1010, 1010, 1010, 1010, 1010, 1010, 1010, 1010, 1010, 1010, 1010, 1010, 1010, 1010, 1010, 1010, 1010, 1010, 1010, 1010, 1010, 1010, 1010, 1010, 1010, 1010, 1010, 1010, 1010, 1010, 1010, 1010, 1010, 1010, 1010, 1010, 1010, 1010, 1010, 1010, 1010, 1010, 1010, 1010, 1010, 1010, 1010, 1010, 1010, 1009, 1007, 1007, 1007, 1005, 1005, 1005, 1005, 1005, 1005, 1005, 1005, 1005, 1005, 1005, 1005, 1005, 1005, 1005, 1005, 1005, 1005, 1005, 1005, 1005, 1005, 1005, 1005, 1005, 1005, 1005, 1005, 1005, 1005, 1005, 1005, 1005, 1005, 1002, 997, 984, 978, 968, 957, 928, 911, 882, 846, 754, 709, 662, 618, 539, 503, 468, 432, 354, 315, 280, 244, 194, 172, 153, 134, 112, 98, 88, 76, 59, 50, 44, 38, 26, 21, 19, 16, 11, 6, 4, 0, 0, 0, 0, 0, 0, 0, 0, 0, 0, 0, 0, 0, 3, 5, 8, 14, 24, 31, 37, 42, 56, 61, 67, 72, 81, 83, 85, 86, 89, 90, 91, 91, 92, 92, 92, 92, 92, 92, 92, 92, 92, 92, 92, 92, 92, 92, 92, 92, 92, 92, 92, 92, 92, 92, 92, 92, 92, 92, 92, 92, 92, 92, 92, 92, 92, 92, 92, 92]"
"Trust","Teilnehmer A hat Ihnen 2 Punkte übermittelt.","Payback","1","undefined","3","0","1","60","1080","341","5","1","1630","0","legacy","[11, 21, 31, 41, 51, 61, 71, 81, 91, 101, 111, 121, 131, 141, 151, 161, 171, 181, 191, 201, 211, 221, 231, 241, 251, 261, 271, 281, 291, 301, 311, 321, 331, 341, 351, 361, 371, 381, 391, 401, 411, 421, 431, 441, 451, 461, 471, 481, 491, 501, 511, 521, 531, 541, 551, 561, 571, 581, 591, 601, 611, 621, 631, 641, 651, 661, 671, 681, 691, 701, 711, 721, 731, 741, 751, 761, 771, 781, 791, 801, 811, 821, 831, 841, 851, 861, 871, 881, 891, 901, 911, 921, 931, 941, 951, 961, 971, 981, 991, 1001, 1011, 1021, 1031, 1041, 1051, 1061, 1071, 1081, 1091, 1101, 1111, 1121, 1131, 1141, 1151, 1161, 1171, 1181, 1191, 1201, 1211, 1221, 1231, 1241, 1251, 1261, 1271, 1281, 1291, 1301, 1311, 1321, 1331, 1341, 1351, 1361, 1371, 1381, 1391, 1401, 1411, 1421, 1431, 1441, 1451, 1461, 1471, 1481, 1491, 1501, 1511, 1521, 1531, 1541, 1551, 1561, 1571, 1581, 1591, 1601, 1611, 1621]","1167","1920","[960, 960, 960, 960, 960, 960, 960, 960, 960, 960, 960, 960, 960, 960, 960, 960, 960, 960, 960, 960, 960, 960, 960, 960, 960, 960, 960, 959, 957, 954, 947, 939, 931, 919, 895, 879, 865, 850, 820, 806, 793, 786, 759, 743, 723, 703, 667, 647, 628, 607, 563, 536, 509, 483, 427, 403, 387, 376, 362, 357, 351, 345, 332, 325, 318, 312, 300, 296, 291, 287, 278, 274, 269, 263, 255, 253, 249, 246, 242, 240, 240, 238, 236, 234, 232, 230, 225, 223, 221, 219, 215, 214, 212, 212, 208, 208, 206, 206, 205, 202, 202, 200, 198, 198, 197, 197, 197, 197, 197, 197, 197, 196, 196, 194, 192, 192, 192, 191, 188, 188, 188, 188, 188, 188, 188, 188, 188, 188, 188, 188, 188, 188, 188, 188, 188, 188, 188, 188, 188, 188, 188, 188, 188, 188, 188, 188, 188, 188, 188, 188, 188, 188, 188, 188, 188, 188, 188, 188, 188, 188, 188, 188]","[1010, 1010, 1010, 1010, 1010, 1010, 1010, 1010, 1010, 1010, 1010, 1010, 1010, 1010, 1010, 1010, 1010, 1010, 1010, 1010, 1010, 1010, 1010, 1010, 1010, 1008, 1002, 998, 993, 987, 971, 960, 948, 932, 898, 878, 863, 843, 810, 794, 775, 761, 724, 704, 681, 657, 616, 592, 574, 552, 507, 478, 451, 420, 365, 341, 325, 313, 295, 288, 279, 270, 245, 234, 225, 215, 199, 192, 184, 178, 161, 155, 146, 139, 128, 123, 119, 115, 109, 107, 106, 103, 99, 97, 94, 90, 83, 82, 78, 76, 71, 69, 68, 65, 61, 59, 57, 55, 52, 47, 47, 44, 41, 41, 40, 40, 39, 39, 39, 39, 39, 38, 38, 38, 40, 41, 43, 45, 54, 58, 65, 71, 78, 80, 83, 84, 87, 87, 87, 87, 87, 87, 87, 87, 87, 87, 87, 87, 87, 87, 87, 87, 87, 87, 87, 87, 87, 87, 87, 87, 87, 87, 87, 87, 87, 87, 87, 87, 87, 87, 87, 87]"
"Trust","Teilnehmer A hat Ihnen 2 Punkte übermittelt.","Payback","1","undefined","4","0","1","60","1080","311","5","1","977","0","legacy","[11, 21, 31, 41, 51, 61, 71, 81, 91, 101, 111, 121, 131, 141, 151, 161, 171, 181, 191, 201, 211, 221, 231, 241, 251, 261, 271, 281, 291, 301, 311, 321, 331, 341, 351, 361, 371, 381, 391, 401, 411, 421, 431, 441, 451, 461, 471, 481, 491, 501, 511, 521, 531, 541, 551, 561, 571, 581, 591, 601, 611, 621, 631, 641, 651, 661, 671, 681, 691, 701, 711, 721, 731, 741, 751, 761, 771, 781, 791, 801, 811, 821, 831, 841, 851, 861, 871, 881, 891, 901, 911, 921, 931, 941, 951, 961, 971]","1167","1920","[960, 960, 960, 960, 960, 960, 960, 960, 960, 960, 960, 960, 960, 960, 960, 960, 960, 960, 960, 960, 960, 960, 960, 960, 960, 960, 957, 950, 937, 928, 921, 910, 889, 873, 854, 839, 797, 773, 745, 721, 678, 662, 650, 642, 629, 619, 609, 595, 565, 547, 532, 517, 488, 474, 457, 442, 411, 401, 385, 374, 351, 339, 327, 317, 301, 292, 283, 275, 259, 250, 241, 232, 219, 214, 208, 205, 194, 189, 183, 175, 164, 158, 152, 146, 139, 138, 138, 138, 138, 138, 138, 138, 138, 138, 138, 138, 138]","[1010, 1010, 1010, 1010, 1010, 1010, 1010, 1010, 1010, 1010, 1010, 1010, 1010, 1010, 1010, 1010, 1010, 1010, 1010, 1010, 1010, 1010, 1010, 1010, 1005, 1001, 997, 988, 967, 952, 935, 911, 861, 827, 791, 764, 701, 657, 608, 564, 493, 473, 453, 442, 419, 407, 395, 380, 354, 339, 325, 313, 292, 281, 270, 258, 236, 229, 217, 210, 194, 185, 177, 170, 158, 150, 144, 137, 125, 117, 112, 106, 99, 96, 92, 90, 81, 80, 76, 71, 66, 64, 61, 60, 60, 60, 60, 60, 60, 60, 60, 60, 60, 60, 60, 60, 60]"
"Trust","Teilnehmer A hat Ihnen 2 Punkte übermittelt.","Payback","1","undefined","5","0","1","60","1080","231","5","1","958","0","legacy","[11, 21, 31, 41, 51, 61, 71, 81, 91, 101, 111, 121, 131, 141, 151, 161, 171, 181, 191, 201, 211, 221, 231, 241, 251, 261, 271, 281, 291, 301, 311, 321, 331, 341, 351, 361, 371, 381, 391, 401, 411, 421, 431, 441, 451, 461, 471, 481, 491, 501, 511, 521, 531, 541, 551, 561, 571, 581, 591, 601, 611, 621, 631, 641, 651, 661, 671, 681, 691, 701, 711, 721, 731, 741, 751, 761, 771, 781, 791, 801, 811, 821, 831, 841, 851, 861, 871, 881, 891, 901, 911, 921, 931, 941, 951]","1167","1920","[960, 960, 960, 960, 960, 960, 960, 960, 960, 960, 960, 960, 960, 960, 960, 960, 960, 960, 959, 956, 954, 953, 948, 943, 938, 930, 907, 889, 872, 847, 804, 776, 748, 727, 679, 658, 636, 618, 583, 570, 553, 535, 505, 494, 484, 476, 457, 448, 439, 433, 422, 418, 414, 411, 406, 403, 399, 398, 394, 393, 388, 386, 380, 376, 370, 363, 344, 332, 323, 314, 296, 288, 277, 267, 244, 237, 228, 223, 215, 212, 210, 206, 202, 202, 200, 199, 196, 196, 195, 195, 195, 195, 195, 195, 195]","[1010, 1010, 1010, 1010, 1010, 1010, 1010, 1010, 1010, 1010, 1010, 1010, 1010, 1010, 1009, 1007, 1007, 1004, 995, 987, 977, 965, 938, 924, 907, 884, 834, 802, 772, 738, 679, 645, 613, 587, 530, 504, 480, 459, 409, 392, 371, 356, 330, 322, 313, 305, 286, 278, 271, 265, 257, 254, 249, 246, 240, 236, 233, 231, 230, 228, 227, 226, 223, 222, 219, 217, 208, 202, 200, 196, 186, 181, 175, 169, 156, 151, 144, 138, 126, 120, 115, 109, 102, 99, 97, 95, 91, 90, 89, 89, 89, 89, 89, 89, 89]"
"Promise","Wie oft werden Sie die Hälfte zurückgeben?","Promise","1","undefined","5","0","2","60","1080","1561","5","1","2176","0","legacy","[11, 21, 31, 41, 51, 61, 71, 81, 91, 101, 111, 121, 131, 141, 151, 161, 171, 181, 191, 201, 211, 221, 231, 241, 251, 261, 271, 281, 291, 301, 311, 321, 331, 341, 351, 361, 371, 381, 391, 401, 411, 421, 431, 441, 451, 461, 471, 481, 491, 501, 511, 521, 531, 541, 551, 561, 571, 581, 591, 601, 611, 621, 631, 641, 651, 661, 671, 681, 691, 701, 711, 721, 731, 741, 751, 761, 771, 781, 791, 801, 811, 821, 831, 841, 851, 861, 871, 881, 891, 901, 911, 921, 931, 941, 951, 961, 971, 981, 991, 1001, 1011, 1021, 1031, 1041, 1051, 1061, 1071, 1081, 1091, 1101, 1111, 1121, 1131, 1141, 1151, 1161, 1171, 1181, 1191, 1201, 1211, 1221, 1231, 1241, 1251, 1261, 1271, 1281, 1291, 1301, 1311, 1321, 1331, 1341, 1351, 1361, 1371, 1381, 1391, 1401, 1411, 1421, 1431, 1441, 1451, 1461, 1471, 1481, 1491, 1501, 1511, 1521, 1531, 1541, 1551, 1561, 1571, 1581, 1591, 1601, 1611, 1621, 1631, 1641, 1651, 1661, 1671, 1681, 1691, 1701, 1711, 1721, 1731, 1741, 1751, 1761, 1771, 1781, 1791, 1801, 1811, 1821, 1831, 1841, 1851, 1861, 1871, 1881, 1891, 1901, 1911, 1921, 1931, 1941, 1951, 1961, 1971, 1981, 1991, 2001, 2011, 2021, 2031, 2041, 2051, 2061, 2071, 2081, 2091, 2101, 2111, 2121, 2131, 2141, 2151, 2161, 2171]","1167","1920","[960, 960, 960, 960, 960, 960, 960, 960, 960, 960, 960, 960, 960, 960, 960, 960, 960, 960, 960, 960, 960, 960, 960, 960, 960, 960, 960, 960, 960, 960, 960, 960, 960, 960, 960, 960, 960, 960, 960, 960, 960, 960, 960, 960, 960, 960, 960, 960, 960, 960, 960, 960, 960, 960, 960, 960, 960, 960, 960, 960, 960, 960, 960, 960, 960, 960, 960, 960, 960, 960, 960, 960, 960, 960, 960, 960, 960, 960, 960, 960, 960, 960, 960, 960, 960, 960, 960, 960, 960, 960, 960, 960, 960, 960, 960, 960, 960, 960, 960, 960, 960, 960, 960, 960, 960, 960, 960, 960, 960, 960, 960, 960, 960, 960, 960, 960, 960, 960, 960, 960, 960, 960, 960, 960, 960, 960, 960, 960, 960, 960, 960, 960, 960, 960, 960, 960, 960, 960, 960, 960, 960, 960, 960, 960, 960, 960, 960, 958, 956, 954, 953, 947, 943, 940, 933, 918, 906, 891, 878, 837, 816, 792, 770, 719, 692, 658, 634, 579, 556, 535, 509, 468, 440, 420, 397, 360, 350, 341, 336, 328, 324, 318, 313, 300, 293, 285, 279, 265, 257, 252, 247, 238, 234, 228, 224, 218, 215, 213, 208, 202, 199, 196, 194, 191, 191, 191, 191, 191, 191, 191, 191, 191, 191, 191, 191, 191, 191]","[1010, 1010, 1010, 1010, 1010, 1010, 1010, 1010, 1010, 1010, 1010, 1010, 1010, 1010, 1010, 1010, 1010, 1010, 1010, 1010, 1010, 1010, 1010, 1010, 1010, 1010, 1010, 1010, 1010, 1010, 1010, 1010, 1010, 1010, 1010, 1010, 1010, 1010, 1010, 1010, 1010, 1010, 1010, 1010, 1010, 1010, 1010, 1010, 1010, 1010, 1010, 1010, 1010, 1010, 1010, 1010, 1010, 1010, 1010, 1010, 1010, 1010, 1010, 1010, 1010, 1010, 1010, 1010, 1010, 1010, 1010, 1010, 1010, 1010, 1010, 1010, 1010, 1010, 1010, 1010, 1010, 1010, 1010, 1010, 1010, 1010, 1010, 1010, 1010, 1010, 1010, 1010, 1010, 1010, 1010, 1010, 1010, 1010, 1010, 1010, 1010, 1010, 1010, 1010, 1010, 1010, 1010, 1010, 1010, 1010, 1010, 1010, 1010, 1010, 1010, 1010, 1010, 1010, 1010, 1010, 1010, 1010, 1010, 1010, 1010, 1010, 1010, 1010, 1010, 1010, 1010, 1010, 1010, 1010, 1010, 1010, 1010, 1010, 1010, 1010, 1010, 1010, 1010, 1010, 1010, 1010, 1010, 1010, 1010, 1005, 1002, 990, 984, 975, 965, 937, 915, 891, 864, 798, 770, 736, 703, 645, 618, 589, 567, 521, 501, 484, 461, 428, 409, 394, 373, 349, 339, 332, 325, 313, 308, 301, 293, 275, 268, 259, 251, 237, 229, 224, 219, 208, 202, 194, 188, 175, 168, 159, 152, 137, 128, 121, 115, 104, 101, 99, 98, 94, 91, 89, 88, 86, 86, 86, 86, 86, 86]"
"NoTrust","Teilnehmer A hat Ihnen keine 2 Punkte übermittelt.","Payback","1","undefined","6","0","2","60","1080","1561","0","1","2176","0","legacy","[11, 21, 31, 41, 51, 61, 71, 81, 91, 101, 111, 121, 131, 141, 151, 161, 171, 181, 191, 201, 211, 221, 231, 241, 251, 261, 271, 281, 291, 301, 311, 321, 331, 341, 351, 361, 371, 381, 391, 401, 411, 421, 431, 441, 451, 461, 471, 481, 491, 501, 511, 521, 531, 541, 551, 561, 571, 581, 591, 601, 611, 621, 631, 641, 651, 661, 671, 681, 691, 701, 711, 721, 731, 741, 751, 761, 771, 781, 791, 801, 811, 821, 831, 841, 851, 861, 871, 881, 891, 901, 911, 921, 931, 941, 951, 961, 971, 981, 991, 1001, 1011, 1021, 1031, 1041, 1051, 1061, 1071, 1081, 1091, 1101, 1111, 1121, 1131, 1141, 1151, 1161, 1171, 1181, 1191, 1201, 1211, 1221, 1231, 1241, 1251, 1261, 1271, 1281, 1291, 1301, 1311, 1321, 1331, 1341, 1351, 1361, 1371, 1381, 1391, 1401, 1411, 1421, 1431, 1441, 1451, 1461, 1471, 1481, 1491, 1501, 1511, 1521, 1531, 1541, 1551, 1561, 1571, 1581, 1591, 1601, 1611, 1621, 1631, 1641, 1651, 1661, 1671, 1681, 1691, 1701, 1711, 1721, 1731, 1741, 1751, 1761, 1771, 1781, 1791, 1801, 1811, 1821, 1831, 1841, 1851, 1861, 1871, 1881, 1891, 1901, 1911, 1921, 1931, 1941, 1951, 1961, 1971, 1981, 1991, 2001, 2011, 2021, 2031, 2041, 2051, 2061, 2071, 2081, 2091, 2101, 2111, 2121, 2131, 2141, 2151, 2161, 2171]","1167","1920","[960, 960, 960, 960, 960, 960, 960, 960, 960, 960, 960, 960, 960, 960, 960, 960, 960, 960, 960, 960, 960, 960, 960, 960, 960, 960, 960, 960, 960, 960, 960, 960, 960, 960, 960, 960, 960, 960, 960, 960, 960, 960, 960, 960, 960, 960, 960, 960, 960, 960, 960, 960, 960, 960, 960, 960, 960, 960, 960, 960, 960, 960, 960, 960, 960, 960, 960, 960, 960, 960, 960, 960, 960, 960, 960, 960, 960, 960, 960, 960, 960, 960, 960, 960, 960, 960, 960, 960, 960, 960, 960, 960, 960, 960, 960, 960, 960, 960, 960, 960, 960, 960, 960, 960, 960, 960, 960, 960, 960, 960, 960, 960, 960, 960, 960, 960, 960, 960, 960, 960, 960, 960, 960, 960, 960, 960, 960, 960, 960, 960, 960, 960, 960, 960, 960, 960, 960, 960, 960, 960, 960, 960, 960, 960, 960, 960, 960, 958, 956, 954, 953, 947, 943, 940, 933, 918, 906, 891, 878, 837, 816, 792, 770, 719, 692, 658, 634, 579, 556, 535, 509, 468, 440, 420, 397, 360, 350, 341, 336, 328, 324, 318, 313, 300, 293, 285, 279, 265, 257, 252, 247, 238, 234, 228, 224, 218, 215, 213, 208, 202, 199, 196, 194, 191, 191, 191, 191, 191, 191, 191, 191, 191, 191, 191, 191, 191, 191]","[1010, 1010, 1010, 1010, 1010, 1010, 1010, 1010, 1010, 1010, 1010, 1010, 1010, 1010, 1010, 1010, 1010, 1010, 1010, 1010, 1010, 1010, 1010, 1010, 1010, 1010, 1010, 1010, 1010, 1010, 1010, 1010, 1010, 1010, 1010, 1010, 1010, 1010, 1010, 1010, 1010, 1010, 1010, 1010, 1010, 1010, 1010, 1010, 1010, 1010, 1010, 1010, 1010, 1010, 1010, 1010, 1010, 1010, 1010, 1010, 1010, 1010, 1010, 1010, 1010, 1010, 1010, 1010, 1010, 1010, 1010, 1010, 1010, 1010, 1010, 1010, 1010, 1010, 1010, 1010, 1010, 1010, 1010, 1010, 1010, 1010, 1010, 1010, 1010, 1010, 1010, 1010, 1010, 1010, 1010, 1010, 1010, 1010, 1010, 1010, 1010, 1010, 1010, 1010, 1010, 1010, 1010, 1010, 1010, 1010, 1010, 1010, 1010, 1010, 1010, 1010, 1010, 1010, 1010, 1010, 1010, 1010, 1010, 1010, 1010, 1010, 1010, 1010, 1010, 1010, 1010, 1010, 1010, 1010, 1010, 1010, 1010, 1010, 1010, 1010, 1010, 1010, 1010, 1010, 1010, 1010, 1010, 1010, 1010, 1005, 1002, 990, 984, 975, 965, 937, 915, 891, 864, 798, 770, 736, 703, 645, 618, 589, 567, 521, 501, 484, 461, 428, 409, 394, 373, 349, 339, 332, 325, 313, 308, 301, 293, 275, 268, 259, 251, 237, 229, 224, 219, 208, 202, 194, 188, 175, 168, 159, 152, 137, 128, 121, 115, 104, 101, 99, 98, 94, 91, 89, 88, 86, 86, 86, 86, 86, 86]"
"Trust","Teilnehmer A hat Ihnen 2 Punkte übermittelt.","Payback","1","undefined","7","0","2","60","1080","201","5","1","783","0","legacy","[11, 21, 31, 41, 51, 61, 71, 81, 91, 101, 111, 121, 131, 141, 151, 161, 171, 181, 191, 201, 211, 221, 231, 241, 251, 261, 271, 281, 291, 301, 311, 321, 331, 341, 351, 361, 371, 381, 391, 401, 411, 421, 431, 441, 451, 461, 471, 481, 491, 501, 511, 521, 531, 541, 551, 561, 571, 581, 591, 601, 611, 621, 631, 641, 651, 661, 671, 681, 691, 701, 711, 721, 731, 741, 751, 761, 771, 781]","1167","1920","[960, 960, 960, 960, 960, 960, 960, 960, 960, 960, 960, 960, 960, 960, 960, 957, 954, 950, 944, 921, 905, 884, 854, 799, 767, 740, 710, 663, 640, 620, 599, 555, 536, 521, 511, 491, 484, 476, 469, 453, 446, 437, 429, 411, 403, 394, 387, 369, 359, 350, 343, 324, 314, 305, 298, 285, 280, 274, 270, 260, 257, 253, 248, 240, 238, 234, 232, 231, 231, 231, 231, 231, 231, 231, 231, 231, 231, 231]","[1010, 1010, 1010, 1010, 1010, 1010, 1010, 1010, 1010, 1010, 1010, 1010, 1010, 1010, 1009, 1000, 993, 982, 969, 931, 904, 873, 831, 763, 723, 687, 645, 563, 525, 492, 461, 409, 388, 370, 360, 340, 331, 321, 312, 294, 287, 278, 271, 257, 250, 242, 236, 221, 211, 201, 190, 167, 156, 144, 134, 119, 110, 103, 97, 84, 81, 74, 69, 59, 57, 53, 51, 50, 50, 50, 50, 50, 50, 50, 50, 50, 50, 50]"
"Trust","Teilnehmer A hat Ihnen 2 Punkte übermittelt.","Payback","0","undefined","8","0","2","60","1080","221","10","2","1091","0","legacy","[11, 21, 31, 41, 51, 61, 71, 81, 91, 101, 111, 121, 131, 141, 151, 161, 171, 181, 191, 201, 211, 221, 231, 241, 251, 261, 271, 281, 291, 301, 311, 321, 331, 341, 351, 361, 371, 381, 391, 401, 411, 421, 431, 441, 451, 461, 471, 481, 491, 501, 511, 521, 531, 541, 551, 561, 571, 581, 591, 601, 611, 621, 631, 641, 651, 661, 671, 681, 691, 701, 711, 721, 731, 741, 751, 761, 771, 781, 791, 801, 811, 821, 831, 841, 851, 861, 871, 881, 891, 901, 911, 921, 931, 941, 951, 961, 971, 981, 991, 1001, 1011, 1021, 1031, 1041, 1051, 1061, 1071, 1081, 1091]","1167","1920","[960, 960, 960, 960, 960, 960, 960, 960, 961, 961, 962, 964, 965, 969, 973, 979, 984, 997, 1006, 1015, 1026, 1051, 1067, 1080, 1097, 1135, 1157, 1176, 1197, 1233, 1246, 1264, 1280, 1322, 1344, 1365, 1392, 1443, 1466, 1492, 1515, 1548, 1564, 1576, 1592, 1621, 1638, 1651, 1673, 1693, 1701, 1706, 1711, 1718, 1720, 1725, 1726, 1730, 1731, 1733, 1735, 1739, 1740, 1744, 1749, 1756, 1762, 1770, 1777, 1790, 1798, 1806, 1813, 1824, 1827, 1829, 1830, 1833, 1834, 1834, 1834, 1834, 1834, 1834, 1834, 1834, 1834, 1834, 1834, 1834, 1834, 1834, 1832, 1825, 1823, 1820, 1819, 1816, 1814, 1812, 1811, 1808, 1808, 1808, 1808, 1808, 1808, 1808, 1808]","[1010, 1010, 1010, 1010, 1010, 1010, 1010, 1010, 1011, 1011, 1011, 1010, 1008, 1004, 1000, 997, 993, 981, 971, 961, 947, 917, 894, 875, 852, 806, 780, 761, 742, 708, 695, 675, 659, 616, 595, 566, 539, 500, 480, 461, 443, 415, 401, 389, 374, 340, 320, 308, 292, 276, 271, 266, 262, 254, 251, 246, 244, 239, 235, 229, 227, 217, 212, 206, 200, 185, 175, 164, 151, 127, 112, 99, 88, 66, 56, 50, 43, 34, 30, 29, 26, 24, 23, 23, 23, 23, 23, 23, 23, 23, 23, 23, 28, 39, 42, 46, 48, 53, 55, 58, 59, 62, 62, 62, 62, 62, 62, 62, 62]"
"Promise","Wie oft werden Sie die Hälfte zurückgeben?","Promise","1","undefined","8","0","3","60","1080","151","10","1","688","0","legacy","[11, 21, 31, 41, 51, 61, 71, 81, 91, 101, 111, 121, 131, 141, 151, 161, 171, 181, 191, 201, 211, 221, 231, 241, 251, 261, 271, 281, 291, 301, 311, 321, 331, 341, 351, 361, 371, 381, 391, 401, 411, 421, 431, 441, 451, 461, 471, 481, 491, 501, 511, 521, 531, 541, 551, 561, 571, 581, 591, 601, 611, 621, 631, 641, 651, 661, 671, 681]","1167","1920","[960, 960, 960, 960, 960, 960, 960, 960, 960, 960, 960, 949, 938, 923, 901, 853, 821, 797, 766, 702, 667, 631, 594, 523, 483, 443, 403, 324, 298, 266, 240, 191, 171, 142, 127, 97, 90, 86, 83, 78, 75, 74, 71, 70, 70, 70, 70, 72, 74, 76, 77, 78, 78, 78, 81, 82, 84, 87, 90, 96, 99, 101, 101, 103, 103, 103, 103, 103]","[1010, 1010, 1010, 1010, 1010, 1010, 1010, 1010, 1010, 1010, 1008, 988, 969, 942, 911, 846, 809, 783, 750, 686, 651, 616, 580, 507, 471, 435, 401, 338, 317, 291, 270, 228, 212, 189, 175, 150, 141, 134, 128, 117, 111, 108, 102, 95, 92, 87, 84, 80, 77, 76, 74, 74, 74, 74, 74, 74, 74, 74, 75, 76, 76, 77, 77, 77, 77, 77, 77, 77]"
"Trust","Teilnehmer A hat Ihnen 2 Punkte übermittelt.","Payback","1","undefined","9","0","3","60","1080","231","5","1","886","0","legacy","[11, 21, 31, 41, 51, 61, 71, 81, 91, 101, 111, 121, 131, 141, 151, 161, 171, 181, 191, 201, 211, 221, 231, 241, 251, 261, 271, 281, 291, 301, 311, 321, 331, 341, 351, 361, 371, 381, 391, 401, 411, 421, 431, 441, 451, 461, 471, 481, 491, 501, 511, 521, 531, 541, 551, 561, 571, 581, 591, 601, 611, 621, 631, 641, 651, 661, 671, 681, 691, 701, 711, 721, 731, 741, 751, 761, 771, 781, 791, 801, 811, 821, 831, 841, 851, 861, 871, 881]","1167","1920","[960, 960, 960, 960, 960, 960, 960, 960, 960, 960, 960, 960, 960, 960, 960, 960, 960, 958, 952, 948, 942, 933, 918, 908, 896, 878, 839, 813, 787, 757, 698, 669, 643, 618, 568, 539, 511, 484, 429, 410, 390, 376, 354, 343, 332, 323, 310, 306, 304, 301, 295, 292, 290, 286, 278, 273, 267, 258, 234, 222, 210, 198, 176, 167, 161, 152, 145, 144, 144, 144, 144, 144, 144, 143, 143, 143, 143, 143, 147, 147, 148, 149, 149, 149, 149, 149, 149, 149]","[1010, 1010, 1010, 1010, 1010, 1010, 1010, 1010, 1010, 1010, 1010, 1010, 1010, 1010, 1010, 1010, 1009, 1005, 991, 981, 967, 946, 910, 887, 863, 835, 762, 718, 671, 630, 548, 514, 480, 444, 382, 345, 313, 284, 228, 207, 183, 168, 142, 130, 120, 112, 94, 86, 81, 76, 67, 62, 60, 56, 49, 47, 43, 39, 29, 25, 20, 14, 5, 3, 1, 0, 0, 0, 0, 0, 0, 0, 0, 0, 12, 19, 27, 31, 38, 39, 41, 41, 42, 42, 42, 42, 42, 42]"
"Trust","Teilnehmer A hat Ihnen 2 Punkte übermittelt.","Payback","1","undefined","10","0","3","60","1080","191","5","1","766","0","legacy","[11, 21, 31, 41, 51, 61, 71, 81, 91, 101, 111, 121, 131, 141, 151, 161, 171, 181, 191, 201, 211, 221, 231, 241, 251, 261, 271, 281, 291, 301, 311, 321, 331, 341, 351, 361, 371, 381, 391, 401, 411, 421, 431, 441, 451, 461, 471, 481, 491, 501, 511, 521, 531, 541, 551, 561, 571, 581, 591, 601, 611, 621, 631, 641, 651, 661, 671, 681, 691, 701, 711, 721, 731, 741, 751, 761]","1167","1920","[960, 960, 960, 960, 960, 960, 960, 960, 960, 960, 960, 955, 951, 946, 937, 930, 924, 915, 889, 875, 853, 825, 771, 746, 719, 699, 656, 635, 608, 577, 516, 483, 455, 425, 372, 346, 328, 306, 271, 256, 243, 234, 218, 211, 206, 201, 196, 193, 193, 191, 190, 190, 190, 190, 189, 189, 189, 186, 186, 186, 186, 186, 187, 188, 191, 194, 199, 202, 203, 203, 203, 203, 203, 203, 203, 203]","[1010, 1010, 1010, 1010, 1010, 1010, 1010, 1010, 1010, 1010, 1011, 1007, 1000, 995, 980, 972, 960, 945, 904, 879, 848, 807, 731, 695, 656, 626, 566, 538, 509, 477, 408, 370, 341, 309, 248, 217, 196, 170, 129, 111, 94, 80, 54, 45, 36, 30, 22, 18, 16, 15, 14, 14, 14, 14, 14, 14, 14, 15, 24, 30, 37, 45, 59, 66, 72, 81, 93, 98, 99, 99, 100, 100, 100, 100, 100, 100]"
"Trust","Teilnehmer A hat Ihnen 2 Punkte übermittelt.","Payback","1","undefined","11","0","3","60","1080","211","5","1","726","0","legacy","[11, 21, 31, 41, 51, 61, 71, 81, 91, 101, 111, 121, 131, 141, 151, 161, 171, 181, 191, 201, 211, 221, 231, 241, 251, 261, 271, 281, 291, 301, 311, 321, 331, 341, 351, 361, 371, 381, 391, 401, 411, 421, 431, 441, 451, 461, 471, 481, 491, 501, 511, 521, 531, 541, 551, 561, 571, 581, 591, 601, 611, 621, 631, 641, 651, 661, 671, 681, 691, 701, 711, 721]","1167","1920","[960, 960, 960, 960, 960, 960, 960, 960, 960, 960, 960, 960, 959, 959, 956, 953, 949, 944, 926, 914, 901, 881, 819, 787, 757, 731, 689, 672, 656, 640, 609, 594, 576, 555, 514, 492, 472, 453, 411, 388, 370, 348, 315, 305, 298, 292, 277, 274, 267, 261, 252, 245, 240, 235, 228, 224, 219, 214, 204, 199, 192, 184, 176, 174, 172, 172, 172, 172, 172, 172, 172, 172]","[1010, 1010, 1010, 1010, 1010, 1010, 1010, 1010, 1010, 1010, 1010, 1010, 1010, 1008, 1000, 996, 988, 979, 957, 942, 924, 899, 820, 778, 736, 699, 648, 623, 598, 570, 511, 484, 454, 426, 369, 343, 322, 301, 264, 246, 230, 214, 187, 177, 170, 161, 147, 142, 136, 130, 122, 117, 112, 108, 102, 98, 94, 90, 83, 79, 74, 69, 64, 63, 61, 61, 61, 61, 61, 61, 61, 61]"
"Promise","Wie oft werden Sie die Hälfte zurückgeben?","Promise","1","undefined","11","0","4","60","1080","181","5","1","817","0","legacy","[11, 21, 31, 41, 51, 61, 71, 81, 91, 101, 111, 121, 131, 141, 151, 161, 171, 181, 191, 201, 211, 221, 231, 241, 251, 261, 271, 281, 291, 301, 311, 321, 331, 341, 351, 361, 371, 381, 391, 401, 411, 421, 431, 441, 451, 461, 471, 481, 491, 501, 511, 521, 531, 541, 551, 561, 571, 581, 591, 601, 611, 621, 631, 641, 651, 661, 671, 681, 691, 701, 711, 721, 731, 741, 751, 761, 771, 781, 791, 801, 811]","1167","1920","[960, 960, 960, 960, 960, 960, 960, 960, 960, 960, 960, 960, 960, 958, 954, 948, 935, 926, 917, 907, 875, 851, 833, 807, 755, 729, 703, 680, 635, 612, 592, 574, 536, 517, 502, 485, 461, 451, 443, 429, 424, 417, 412, 407, 402, 402, 401, 399, 398, 397, 395, 388, 382, 378, 373, 359, 354, 345, 340, 332, 312, 303, 292, 273, 266, 258, 250, 232, 224, 214, 204, 189, 185, 184, 184, 184, 184, 184, 184, 184, 184]","[1010, 1010, 1010, 1010, 1010, 1010, 1010, 1010, 1010, 1010, 1010, 1010, 1004, 998, 986, 972, 942, 921, 895, 869, 807, 764, 731, 687, 597, 553, 504, 466, 387, 348, 315, 290, 237, 211, 191, 168, 139, 128, 121, 108, 104, 99, 98, 95, 93, 93, 93, 93, 93, 93, 93, 93, 93, 93, 95, 96, 96, 96, 96, 96, 96, 96, 96, 96, 96, 96, 96, 96, 96, 96, 96, 96, 96, 96, 96, 96, 96, 96, 96, 96, 96]"
"Trust","Teilnehmer A hat Ihnen 2 Punkte übermittelt.","Payback","1","undefined","12","0","4","60","1080","141","5","1","637","0","legacy","[11, 21, 31, 41, 51, 61, 71, 81, 91, 101, 111, 121, 131, 141, 151, 161, 171, 181, 191, 201, 211, 221, 231, 241, 251, 261, 271, 281, 291, 301, 311, 321, 331, 341, 351, 361, 371, 381, 391, 401, 411, 421, 431, 441, 451, 461, 471, 481, 491, 501, 511, 521, 531, 541, 551, 561, 571, 581, 591, 601, 611, 621, 631]","1167","1920","[960, 960, 960, 960, 960, 960, 960, 960, 959, 959, 956, 954, 948, 942, 916, 893, 870, 848, 799, 772, 746, 725, 669, 646, 618, 591, 534, 509, 485, 458, 412, 390, 367, 352, 321, 312, 300, 293, 275, 268, 261, 257, 251, 250, 250, 250, 250, 250, 250, 249, 248, 248, 246, 246, 244, 243, 243, 243, 243, 243, 243, 243, 243]","[1010, 1010, 1010, 1010, 1010, 1009, 1003, 999, 993, 986, 971, 961, 950, 935, 887, 846, 805, 764, 680, 641, 599, 561, 485, 450, 418, 388, 330, 303, 279, 252, 204, 183, 163, 149, 123, 116, 107, 100, 88, 83, 78, 77, 73, 72, 72, 72, 72, 72, 72, 71, 70, 69, 68, 67, 66, 65, 65, 65, 65, 65, 65, 65, 65]"
"Trust","Teilnehmer A hat Ihnen 2 Punkte übermittelt.","Payback","1","undefined","13","0","4","60","1080","151","5","1","766","0","legacy","[11, 21, 31, 41, 51, 61, 71, 81, 91, 101, 111, 121, 131, 141, 151, 161, 171, 181, 191, 201, 211, 221, 231, 241, 251, 261, 271, 281, 291, 301, 311, 321, 331, 341, 351, 361, 371, 381, 391, 401, 411, 421, 431, 441, 451, 461, 471, 481, 491, 501, 511, 521, 531, 541, 551, 561, 571, 581, 591, 601, 611, 621, 631, 641, 651, 661, 671, 681, 691, 701, 711, 721, 731, 741, 751, 761]","1167","1920","[960, 960, 960, 960, 960, 960, 960, 960, 960, 960, 954, 950, 944, 937, 905, 881, 855, 829, 774, 753, 727, 698, 641, 610, 589, 568, 544, 529, 521, 509, 481, 467, 447, 429, 393, 375, 363, 354, 337, 331, 324, 318, 305, 297, 290, 281, 272, 270, 268, 267, 266, 266, 264, 263, 262, 261, 261, 259, 257, 257, 256, 254, 248, 245, 243, 241, 239, 239, 237, 237, 237, 237, 237, 237, 237, 237]","[1010, 1010, 1010, 1010, 1010, 1010, 1010, 1010, 1010, 1010, 1000, 994, 983, 971, 921, 888, 856, 825, 759, 738, 717, 692, 647, 619, 600, 582, 553, 535, 523, 509, 479, 463, 446, 431, 400, 385, 375, 366, 349, 342, 334, 326, 310, 301, 295, 284, 272, 270, 266, 265, 259, 257, 254, 250, 240, 234, 227, 220, 204, 193, 182, 171, 145, 134, 123, 112, 96, 91, 84, 81, 74, 74, 74, 74, 74, 74]"
"Trust","Teilnehmer A hat Ihnen 2 Punkte übermittelt.","Payback","1","undefined","14","0","4","60","1080","221","5","1","814","0","legacy","[11, 21, 31, 41, 51, 61, 71, 81, 91, 101, 111, 121, 131, 141, 151, 161, 171, 181, 191, 201, 211, 221, 231, 241, 251, 261, 271, 281, 291, 301, 311, 321, 331, 341, 351, 361, 371, 381, 391, 401, 411, 421, 431, 441, 451, 461, 471, 481, 491, 501, 511, 521, 531, 541, 551, 561, 571, 581, 591, 601, 611, 621, 631, 641, 651, 661, 671, 681, 691, 701, 711, 721, 731, 741, 751, 761, 771, 781, 791, 801, 811]","1167","1920","[960, 960, 960, 960, 960, 960, 960, 960, 960, 960, 960, 960, 960, 960, 960, 960, 960, 960, 953, 944, 938, 928, 905, 896, 889, 876, 850, 833, 814, 787, 734, 709, 689, 671, 642, 630, 614, 591, 539, 513, 485, 470, 436, 416, 393, 374, 345, 334, 325, 316, 303, 296, 289, 284, 273, 269, 264, 259, 253, 249, 245, 240, 228, 221, 216, 210, 201, 197, 192, 188, 181, 179, 175, 175, 174, 174, 174, 174, 174, 174, 174]","[1010, 1010, 1010, 1010, 1010, 1010, 1010, 1010, 1010, 1010, 1010, 1010, 1010, 1010, 1010, 1010, 1010, 1005, 977, 959, 942, 918, 875, 855, 832, 808, 750, 720, 694, 658, 597, 570, 547, 526, 491, 476, 460, 442, 399, 376, 359, 347, 323, 307, 291, 277, 258, 250, 243, 235, 224, 216, 210, 205, 192, 188, 184, 179, 174, 170, 165, 160, 148, 142, 134, 125, 109, 103, 95, 87, 76, 71, 66, 64, 60, 59, 59, 59, 59, 59, 59]"
"Promise","Wie oft werden Sie die Hälfte zurückgeben?","Promise","1","undefined","14","0","5","60","1080","151","5","1","585","0","legacy","[11, 21, 31, 41, 51, 61, 71, 81, 91, 101, 111, 121, 131, 141, 151, 161, 171, 181, 191, 201, 211, 221, 231, 241, 251, 261, 271, 281, 291, 301, 311, 321, 331, 341, 351, 361, 371, 381, 391, 401, 411, 421, 431, 441, 451, 461, 471, 481, 491, 501, 511, 521, 531, 541, 551, 561, 571, 581]","1167","1920","[960, 960, 960, 960, 960, 960, 960, 960, 960, 960, 957, 952, 931, 916, 897, 870, 799, 757, 708, 659, 571, 537, 505, 482, 426, 397, 367, 341, 293, 275, 252, 235, 215, 209, 202, 198, 191, 187, 184, 183, 179, 178, 175, 173, 169, 165, 165, 164, 162, 162, 162, 162, 162, 162, 162, 162, 162, 162]","[1010, 1010, 1010, 1010, 1010, 1010, 1010, 1010, 1010, 1010, 1008, 1001, 972, 952, 926, 890, 800, 751, 703, 651, 578, 538, 505, 479, 416, 381, 349, 318, 263, 246, 228, 215, 198, 190, 181, 175, 161, 154, 146, 143, 136, 131, 125, 121, 109, 103, 98, 96, 94, 94, 94, 94, 94, 94, 94, 94, 94, 94]"
"Trust","Teilnehmer A hat Ihnen 2 Punkte übermittelt.","Payback","1","undefined","15","0","5","60","1080","141","5","1","748","0","legacy","[11, 21, 31, 41, 51, 61, 71, 81, 91, 101, 111, 121, 131, 141, 151, 161, 171, 181, 191, 201, 211, 221, 231, 241, 251, 261, 271, 281, 291, 301, 311, 321, 331, 341, 351, 361, 371, 381, 391, 401, 411, 421, 431, 441, 451, 461, 471, 481, 491, 501, 511, 521, 531, 541, 551, 561, 571, 581, 591, 601, 611, 621, 631, 641, 651, 661, 671, 681, 691, 701, 711, 721, 731, 741]","1167","1920","[960, 960, 960, 960, 960, 960, 960, 960, 960, 957, 952, 946, 933, 896, 870, 850, 831, 793, 773, 755, 733, 695, 676, 654, 636, 601, 584, 567, 550, 526, 515, 503, 486, 444, 421, 403, 383, 355, 341, 330, 320, 303, 292, 282, 272, 255, 249, 245, 240, 230, 225, 219, 215, 208, 203, 201, 197, 192, 188, 185, 181, 174, 170, 170, 169, 167, 167, 167, 167, 167, 167, 167, 167, 167]","[1010, 1010, 1010, 1010, 1010, 1011, 1011, 1011, 1011, 1010, 1001, 990, 974, 923, 894, 870, 849, 805, 782, 763, 742, 700, 682, 658, 635, 600, 582, 561, 543, 513, 499, 484, 466, 426, 404, 391, 374, 350, 339, 328, 318, 297, 287, 277, 269, 256, 250, 245, 240, 230, 223, 216, 210, 193, 183, 176, 167, 147, 134, 120, 107, 89, 81, 77, 72, 66, 64, 64, 63, 63, 63, 63, 63, 63]"
"Trust","Teilnehmer A hat Ihnen 2 Punkte übermittelt.","Payback","1","undefined","16","0","5","60","1080","161","5","1","733","0","legacy","[11, 21, 31, 41, 51, 61, 71, 81, 91, 101, 111, 121, 131, 141, 151, 161, 171, 181, 191, 201, 211, 221, 231, 241, 251, 261, 271, 281, 291, 301, 311, 321, 331, 341, 351, 361, 371, 381, 391, 401, 411, 421, 431, 441, 451, 461, 471, 481, 491, 501, 511, 521, 531, 541, 551, 561, 571, 581, 591, 601, 611, 621, 631, 641, 651, 661, 671, 681, 691, 701, 711, 721, 731]","1167","1920","[960, 960, 960, 960, 960, 960, 960, 960, 960, 960, 950, 945, 937, 928, 914, 900, 882, 862, 810, 773, 731, 683, 591, 550, 516, 480, 421, 392, 368, 341, 304, 291, 275, 263, 245, 239, 234, 230, 220, 215, 208, 201, 190, 184, 180, 179, 176, 174, 173, 172, 171, 170, 170, 170, 170, 170, 169, 167, 163, 162, 161, 161, 160, 158, 157, 157, 156, 156, 156, 156, 156, 156, 156]","[1010, 1010, 1010, 1010, 1010, 1010, 1010, 1010, 1010, 1010, 1000, 991, 980, 967, 948, 932, 913, 892, 847, 818, 784, 749, 677, 636, 596, 559, 497, 472, 449, 423, 387, 370, 352, 339, 319, 310, 304, 296, 281, 271, 264, 253, 239, 232, 226, 224, 218, 213, 210, 206, 193, 187, 183, 177, 161, 151, 142, 135, 119, 109, 103, 95, 84, 79, 75, 73, 68, 68, 68, 68, 68, 68, 68]"
"NoTrust","Teilnehmer A hat Ihnen keine 2 Punkte übermittelt.","Payback","1","undefined","17","0","5","60","1080","161","0","1","733","0","legacy","[11, 21, 31, 41, 51, 61, 71, 81, 91, 101, 111, 121, 131, 141, 151, 161, 171, 181, 191, 201, 211, 221, 231, 241, 251, 261, 271, 281, 291, 301, 311, 321, 331, 341, 351, 361, 371, 381, 391, 401, 411, 421, 431, 441, 451, 461, 471, 481, 491, 501, 511, 521, 531, 541, 551, 561, 571, 581, 591, 601, 611, 621, 631, 641, 651, 661, 671, 681, 691, 701, 711, 721, 731]","1167","1920","[960, 960, 960, 960, 960, 960, 960, 960, 960, 960, 950, 945, 937, 928, 914, 900, 882, 862, 810, 773, 731, 683, 591, 550, 516, 480, 421, 392, 368, 341, 304, 291, 275, 263, 245, 239, 234, 230, 220, 215, 208, 201, 190, 184, 180, 179, 176, 174, 173, 172, 171, 170, 170, 170, 170, 170, 169, 167, 163, 162, 161, 161, 160, 158, 157, 157, 156, 156, 156, 156, 156, 156, 156]","[1010, 1010, 1010, 1010, 1010, 1010, 1010, 1010, 1010, 1010, 1000, 991, 980, 967, 948, 932, 913, 892, 847, 818, 784, 749, 677, 636, 596, 559, 497, 472, 449, 423, 387, 370, 352, 339, 319, 310, 304, 296, 281, 271, 264, 253, 239, 232, 226, 224, 218, 213, 210, 206, 193, 187, 183, 177, 161, 151, 142, 135, 119, 109, 103, 95, 84, 79, 75, 73, 68, 68, 68, 68, 68, 68, 68]"
"Promise","Wie oft werden Sie die Hälfte zurückgeben?","Promise","1","undefined","17","0","6","60","1080","181","0","1","664","0","legacy","[11, 21, 31, 41, 51, 61, 71, 81, 91, 101, 111, 121, 131, 141, 151, 161, 171, 181, 191, 201, 211, 221, 231, 241, 251, 261, 271, 281, 291, 301, 311, 321, 331, 341, 351, 361, 371, 381, 391, 401, 411, 421, 431, 441, 451, 461, 471, 481, 491, 501, 511, 521, 531, 541, 551, 561, 571, 581, 591, 601, 611, 621, 631, 641, 651, 661]","1167","1920","[960, 960, 960, 959, 959, 959, 959, 958, 958, 956, 956, 955, 952, 951, 950, 944, 935, 921, 903, 862, 845, 817, 791, 735, 704, 671, 637, 575, 537, 504, 463, 390, 354, 331, 305, 262, 241, 224, 212, 189, 182, 175, 169, 160, 156, 154, 152, 147, 146, 144, 143, 143, 143, 143, 143, 143, 143, 143, 143, 143, 143, 143, 143, 143, 143, 143]","[1010, 1010, 1010, 1010, 1010, 1010, 1010, 1010, 1010, 1008, 1008, 1003, 999, 994, 988, 970, 949, 920, 890, 831, 806, 774, 743, 677, 642, 605, 565, 493, 453, 418, 377, 324, 297, 279, 258, 225, 209, 194, 185, 165, 158, 153, 148, 139, 134, 131, 127, 120, 116, 112, 110, 106, 104, 103, 102, 100, 100, 100, 100, 100, 100, 100, 100, 100, 100, 100]"
"Trust","Teilnehmer A hat Ihnen 2 Punkte übermittelt.","Payback","0","undefined","18","0","6","60","1080","151","10","2","933","0","legacy","[11, 21, 31, 41, 51, 61, 71, 81, 91, 101, 111, 121, 131, 141, 151, 161, 171, 181, 191, 201, 211, 221, 231, 241, 251, 261, 271, 281, 291, 301, 311, 321, 331, 341, 351, 361, 371, 381, 391, 401, 411, 421, 431, 441, 451, 461, 471, 481, 491, 501, 511, 521, 531, 541, 551, 561, 571, 581, 591, 601, 611, 621, 631, 641, 651, 661, 671, 681, 691, 701, 711, 721, 731, 741, 751, 761, 771, 781, 791, 801, 811, 821, 831, 841, 851, 861, 871, 881, 891, 901, 911, 921, 931]","1167","1920","[960, 960, 960, 960, 960, 960, 960, 960, 960, 960, 970, 980, 994, 1019, 1096, 1136, 1186, 1231, 1327, 1374, 1428, 1473, 1566, 1611, 1656, 1698, 1763, 1799, 1822, 1842, 1877, 1887, 1896, 1902, 1911, 1913, 1916, 1917, 1919, 1919, 1919, 1919, 1919, 1919, 1919, 1919, 1919, 1918, 1915, 1914, 1907, 1902, 1899, 1894, 1884, 1880, 1877, 1875, 1872, 1869, 1869, 1868, 1868, 1868, 1868, 1868, 1868, 1868, 1868, 1868, 1866, 1866, 1862, 1860, 1851, 1847, 1843, 1841, 1835, 1834, 1834, 1832, 1831, 1831, 1831, 1830, 1828, 1828, 1828, 1828, 1828, 1828, 1828]","[1010, 1010, 1010, 1010, 1010, 1010, 1010, 1010, 1010, 1010, 996, 982, 967, 940, 875, 841, 801, 767, 690, 654, 612, 573, 498, 466, 431, 399, 351, 324, 306, 292, 265, 257, 250, 244, 231, 228, 222, 219, 211, 210, 207, 206, 204, 203, 203, 202, 201, 199, 195, 194, 186, 181, 178, 172, 161, 157, 153, 151, 145, 143, 142, 141, 141, 140, 140, 140, 140, 140, 140, 140, 140, 140, 140, 141, 142, 142, 142, 142, 142, 142, 142, 142, 142, 142, 142, 142, 141, 141, 141, 140, 140, 140, 140]"
"Trust","Teilnehmer A hat Ihnen 2 Punkte übermittelt.","Payback","1","undefined","19","0","6","60","1080","161","5","1","678","0","legacy","[11, 21, 31, 41, 51, 61, 71, 81, 91, 101, 111, 121, 131, 141, 151, 161, 171, 181, 191, 201, 211, 221, 231, 241, 251, 261, 271, 281, 291, 301, 311, 321, 331, 341, 351, 361, 371, 381, 391, 401, 411, 421, 431, 441, 451, 461, 471, 481, 491, 501, 511, 521, 531, 541, 551, 561, 571, 581, 591, 601, 611, 621, 631, 641, 651, 661, 671]","1167","1920","[960, 960, 960, 960, 960, 960, 960, 960, 960, 958, 957, 954, 952, 948, 935, 926, 916, 901, 867, 839, 811, 777, 714, 686, 655, 625, 565, 530, 501, 471, 418, 396, 375, 357, 323, 310, 300, 290, 275, 272, 266, 262, 254, 253, 250, 250, 249, 249, 247, 247, 246, 245, 243, 242, 238, 235, 235, 232, 231, 231, 231, 231, 231, 231, 231, 231, 231]","[1010, 1010, 1010, 1010, 1010, 1010, 1010, 1010, 1010, 1009, 996, 988, 979, 968, 945, 930, 909, 886, 831, 802, 768, 725, 651, 619, 582, 550, 479, 448, 419, 391, 339, 316, 290, 269, 228, 211, 199, 187, 169, 166, 159, 154, 146, 143, 139, 138, 135, 135, 133, 132, 130, 129, 127, 124, 120, 117, 115, 112, 110, 109, 109, 109, 109, 109, 109, 109, 109]"
"Trust","Teilnehmer A hat Ihnen 2 Punkte übermittelt.","Payback","1","undefined","20","0","6","60","1080","191","5","1","765","0","legacy","[11, 21, 31, 41, 51, 61, 71, 81, 91, 101, 111, 121, 131, 141, 151, 161, 171, 181, 191, 201, 211, 221, 231, 241, 251, 261, 271, 281, 291, 301, 311, 321, 331, 341, 351, 361, 371, 381, 391, 401, 411, 421, 431, 441, 451, 461, 471, 481, 491, 501, 511, 521, 531, 541, 551, 561, 571, 581, 591, 601, 611, 621, 631, 641, 651, 661, 671, 681, 691, 701, 711, 721, 731, 741, 751, 761]","1167","1920","[960, 960, 960, 960, 960, 960, 960, 960, 960, 960, 960, 960, 960, 960, 958, 952, 946, 933, 900, 886, 867, 845, 804, 776, 749, 719, 679, 659, 641, 625, 597, 576, 556, 537, 498, 478, 460, 447, 422, 413, 403, 393, 370, 356, 346, 332, 314, 309, 304, 300, 297, 295, 294, 294, 291, 288, 286, 282, 277, 274, 271, 268, 255, 249, 242, 234, 223, 223, 221, 221, 221, 221, 221, 221, 221, 221]","[1010, 1010, 1010, 1010, 1010, 1010, 1010, 1010, 1010, 1010, 1010, 1010, 1010, 1010, 1007, 994, 978, 954, 896, 867, 829, 796, 723, 684, 645, 605, 546, 519, 496, 473, 431, 410, 386, 365, 323, 302, 284, 271, 250, 241, 233, 224, 207, 198, 190, 180, 165, 160, 156, 153, 150, 148, 147, 147, 142, 139, 136, 129, 121, 116, 113, 111, 102, 97, 92, 89, 80, 79, 78, 78, 78, 78, 78, 78, 78, 78]"
"Promise","Wie oft werden Sie die Hälfte zurückgeben?","Promise","1","undefined","20","0","7","60","1080","141","5","1","632","0","legacy","[11, 21, 31, 41, 51, 61, 71, 81, 91, 101, 111, 121, 131, 141, 151, 161, 171, 181, 191, 201, 211, 221, 231, 241, 251, 261, 271, 281, 291, 301, 311, 321, 331, 341, 351, 361, 371, 381, 391, 401, 411, 421, 431, 441, 451, 461, 471, 481, 491, 501, 511, 521, 531, 541, 551, 561, 571, 581, 591, 601, 611, 621, 631]","1167","1920","[960, 960, 960, 960, 960, 960, 959, 959, 955, 952, 948, 937, 931, 924, 909, 879, 864, 846, 825, 773, 736, 699, 659, 578, 546, 517, 487, 437, 411, 384, 362, 319, 292, 272, 252, 216, 206, 197, 186, 166, 154, 144, 138, 131, 131, 131, 131, 131, 131, 131, 129, 128, 128, 128, 128, 129, 129, 129, 129, 129, 129, 129, 129]","[1010, 1010, 1010, 1010, 1010, 1010, 1011, 1011, 1010, 1001, 991, 967, 952, 935, 910, 856, 831, 799, 758, 683, 640, 595, 544, 453, 411, 372, 330, 253, 209, 175, 139, 80, 46, 20, 0, 0, 0, 0, 0, 0, 0, 0, 0, 0, 0, 0, 0, 0, 0, 1, 8, 22, 29, 34, 37, 42, 43, 44, 44, 44, 44, 44, 44]"
"Trust","Teilnehmer A hat Ihnen 2 Punkte übermittelt.","Payback","0","undefined","21","0","7","60","1080","131","10","2","709","0","legacy","[11, 21, 31, 41, 51, 61, 71, 81, 91, 101, 111, 121, 131, 141, 151, 161, 171, 181, 191, 201, 211, 221, 231, 241, 251, 261, 271, 281, 291, 301, 311, 321, 331, 341, 351, 361, 371, 381, 391, 401, 411, 421, 431, 441, 451, 461, 471, 481, 491, 501, 511, 521, 531, 541, 551, 561, 571, 581, 591, 601, 611, 621, 631, 641, 651, 661, 671, 681, 691, 701]","1167","1920","[960, 960, 960, 960, 960, 960, 960, 960, 961, 967, 984, 994, 1005, 1022, 1071, 1105, 1141, 1171, 1222, 1246, 1269, 1297, 1343, 1363, 1383, 1399, 1436, 1449, 1463, 1474, 1490, 1498, 1504, 1512, 1523, 1529, 1537, 1548, 1569, 1579, 1588, 1595, 1612, 1621, 1632, 1646, 1668, 1681, 1695, 1715, 1747, 1763, 1773, 1785, 1799, 1804, 1807, 1808, 1810, 1810, 1810, 1810, 1810, 1810, 1810, 1810, 1810, 1810, 1810, 1810]","[1010, 1010, 1010, 1010, 1010, 1010, 1010, 1007, 1004, 993, 970, 951, 927, 900, 835, 790, 752, 720, 662, 638, 609, 578, 523, 499, 476, 460, 423, 410, 395, 384, 364, 353, 343, 333, 316, 305, 297, 284, 261, 251, 243, 237, 222, 216, 206, 197, 181, 174, 164, 152, 133, 125, 119, 112, 104, 100, 98, 97, 95, 95, 95, 95, 95, 95, 95, 95, 95, 95, 95, 95]"
"Trust","Teilnehmer A hat Ihnen 2 Punkte übermittelt.","Payback","1","undefined","22","0","7","60","1080","171","5","1","605","0","legacy","[11, 21, 31, 41, 51, 61, 71, 81, 91, 101, 111, 121, 131, 141, 151, 161, 171, 181, 191, 201, 211, 221, 231, 241, 251, 261, 271, 281, 291, 301, 311, 321, 331, 341, 351, 361, 371, 381, 391, 401, 411, 421, 431, 441, 451, 461, 471, 481, 491, 501, 511, 521, 531, 541, 551, 561, 571, 581, 591, 601]","1167","1920","[960, 960, 960, 960, 960, 960, 960, 960, 960, 960, 960, 960, 955, 949, 938, 931, 920, 906, 874, 852, 828, 801, 747, 721, 694, 664, 585, 548, 508, 476, 410, 375, 344, 312, 258, 238, 228, 216, 199, 195, 189, 184, 176, 172, 169, 164, 156, 153, 151, 150, 149, 149, 149, 149, 149, 149, 149, 149, 149, 149]","[1010, 1010, 1010, 1010, 1010, 1010, 1010, 1010, 1010, 1010, 1010, 1010, 1001, 989, 963, 946, 922, 895, 850, 819, 786, 747, 676, 649, 615, 583, 505, 471, 435, 405, 349, 320, 294, 266, 226, 209, 200, 186, 166, 160, 154, 149, 142, 137, 133, 128, 121, 118, 116, 114, 112, 111, 111, 109, 108, 108, 108, 108, 108, 108]"
"Trust","Teilnehmer A hat Ihnen 2 Punkte übermittelt.","Payback","1","undefined","23","0","7","60","1080","161","5","1","684","0","legacy","[11, 21, 31, 41, 51, 61, 71, 81, 91, 101, 111, 121, 131, 141, 151, 161, 171, 181, 191, 201, 211, 221, 231, 241, 251, 261, 271, 281, 291, 301, 311, 321, 331, 341, 351, 361, 371, 381, 391, 401, 411, 421, 431, 441, 451, 461, 471, 481, 491, 501, 511, 521, 531, 541, 551, 561, 571, 581, 591, 601, 611, 621, 631, 641, 651, 661, 671, 681]","1167","1920","[960, 960, 960, 960, 960, 960, 960, 960, 960, 960, 960, 960, 960, 950, 935, 909, 887, 835, 814, 795, 776, 732, 714, 696, 679, 647, 621, 598, 572, 522, 493, 477, 456, 423, 413, 397, 382, 350, 336, 316, 305, 281, 274, 265, 255, 241, 235, 229, 225, 217, 214, 212, 208, 204, 201, 200, 198, 194, 193, 190, 188, 185, 185, 185, 185, 185, 185, 185]","[1010, 1010, 1010, 1010, 1010, 1010, 1010, 1010, 1010, 1010, 1010, 1010, 1010, 976, 946, 902, 859, 769, 731, 691, 650, 576, 546, 511, 471, 397, 353, 315, 283, 228, 202, 186, 165, 138, 129, 116, 103, 80, 68, 56, 48, 34, 29, 25, 21, 15, 15, 12, 12, 12, 12, 12, 12, 14, 15, 17, 17, 20, 20, 22, 23, 26, 26, 26, 26, 27, 27, 27]"
CHF,TotCHF,final_payoff,sum
"10","30","[5, 10, 0, 5]","20"
