Condition,PromiseStage,Stage,accuracy,avg_rt,count_decision_sequence,count_loop1,count_trial_sequence,font_size,height,init_time,payoff,response,rt,subject_nr,synth_backend,tTrajectory,time_experiment,width,xTrajectory,yTrajectory
"Promise","Wie oft werden Sie die Hälfte zurückgeben?","Promise","1","undefined","NA","0","0","60","1080","481","NA","1","2471","0","legacy","[11, 21, 31, 41, 51, 61, 71, 81, 91, 101, 111, 121, 131, 141, 151, 161, 171, 181, 191, 201, 211, 221, 231, 241, 251, 261, 271, 281, 291, 301, 311, 321, 331, 341, 351, 361, 371, 381, 391, 401, 411, 421, 431, 441, 451, 461, 471, 481, 491, 501, 511, 521, 531, 541, 551, 561, 571, 581, 591, 601, 611, 621, 631, 641, 651, 661, 671, 681, 691, 701, 711, 721, 731, 741, 751, 761, 771, 781, 791, 801, 811, 821, 831, 841, 851, 861, 871, 881, 891, 901, 911, 921, 931, 941, 951, 961, 971, 981, 991, 1001, 1011, 1021, 1031, 1041, 1051, 1061, 1071, 1081, 1091, 1101, 1111, 1121, 1131, 1141, 1151, 1161, 1171, 1181, 1191, 1201, 1211, 1221, 1231, 1241, 1251, 1261, 1271, 1281, 1291, 1301, 1311, 1321, 1331, 1341, 1351, 1361, 1371, 1381, 1391, 1401, 1411, 1421, 1431, 1441, 1451, 1461, 1471, 1481, 1491, 1501, 1511, 1521, 1531, 1541, 1551, 1561, 1571, 1581, 1591, 1601, 1611, 1621, 1631, 1641, 1651, 1661, 1671, 1681, 1691, 1701, 1711, 1721, 1731, 1741, 1751, 1761, 1771, 1781, 1791, 1801, 1811, 1821, 1831, 1841, 1851, 1861, 1871, 1881, 1891, 1901, 1911, 1921, 1931, 1941, 1951, 1961, 1971, 1981, 1991, 2001, 2011, 2021, 2031, 2041, 2051, 2061, 2071, 2081, 2091, 2101, 2111, 2121, 2131, 2141, 2151, 2161, 2171, 2181, 2191, 2201, 2211, 2221, 2231, 2241, 2251, 2261, 2271, 2281, 2291, 2301, 2311, 2321, 2331, 2341, 2351, 2361, 2371, 2381, 2391, 2401, 2411, 2421, 2431, 2441, 2451, 2461, 2471]","1081","1920","[960, 960, 960, 960, 960, 960, 960, 960, 960, 960, 958, 955, 955, 955, 955, 955, 955, 955, 955, 955, 955, 955, 955, 955, 955, 955, 955, 950, 947, 947, 947, 946, 946, 946, 946, 946, 941, 936, 930, 915, 908, 900, 890, 889, 888, 885, 882, 847, 819, 787, 751, 668, 634, 602, 577, 518, 488, 461, 436, 401, 389, 380, 374, 366, 366, 365, 364, 363, 363, 363, 363, 363, 363, 367, 371, 391, 400, 409, 421, 443, 455, 467, 477, 494, 501, 507, 514, 526, 530, 536, 542, 558, 565, 575, 585, 608, 618, 629, 639, 662, 675, 687, 696, 718, 724, 735, 744, 759, 766, 770, 771, 779, 788, 801, 814, 840, 855, 869, 885, 911, 923, 936, 948, 968, 975, 983, 992, 1005, 1012, 1019, 1026, 1042, 1051, 1056, 1062, 1070, 1073, 1078, 1081, 1083, 1083, 1083, 1083, 1083, 1083, 1083, 1083, 1083, 1083, 1083, 1083, 1083, 1083, 1083, 1083, 1083, 1083, 1083, 1083, 1083, 1083, 1083, 1086, 1091, 1099, 1106, 1111, 1140, 1159, 1185, 1206, 1260, 1283, 1309, 1335, 1393, 1422, 1451, 1484, 1550, 1583, 1620, 1647, 1699, 1721, 1738, 1752, 1778, 1787, 1798, 1804, 1815, 1818, 1821, 1824, 1827, 1830, 1830, 1831, 1833, 1833, 1833, 1833, 1833, 1833, 1833, 1833, 1833, 1833, 1833, 1833, 1830, 1830, 1829, 1827, 1827, 1827, 1827, 1827, 1827, 1827, 1827, 1827, 1827, 1827, 1827, 1827, 1827, 1827, 1827, 1827, 1827, 1827, 1827, 1827, 1827, 1827, 1827, 1827, 1827, 1827, 1827, 1827, 1827, 1827, 1827, 1827]","[1010, 1010, 1010, 1010, 1010, 1010, 1010, 1010, 1010, 1009, 1009, 1009, 1009, 1009, 1009, 1009, 1009, 1009, 1009, 1009, 1009, 1009, 1009, 1009, 1009, 1009, 1009, 1009, 1009, 1009, 1009, 1009, 1009, 1009, 1009, 1009, 1009, 1009, 1009, 1009, 1009, 1009, 1005, 1005, 1004, 996, 981, 903, 859, 797, 721, 586, 546, 518, 501, 472, 456, 439, 422, 402, 395, 391, 387, 384, 384, 384, 384, 384, 384, 384, 384, 384, 384, 391, 398, 424, 435, 443, 452, 471, 482, 489, 497, 509, 515, 520, 526, 536, 540, 544, 549, 561, 566, 573, 579, 589, 590, 593, 594, 600, 606, 610, 614, 620, 622, 624, 627, 628, 628, 628, 628, 628, 628, 626, 625, 621, 620, 618, 615, 610, 609, 608, 605, 601, 598, 597, 594, 591, 591, 589, 588, 588, 588, 588, 588, 589, 590, 594, 599, 603, 603, 603, 603, 603, 603, 603, 603, 603, 603, 603, 603, 603, 603, 603, 603, 603, 603, 603, 603, 603, 603, 603, 605, 607, 603, 598, 597, 582, 578, 570, 566, 550, 540, 529, 517, 491, 480, 468, 448, 409, 385, 354, 327, 276, 250, 231, 212, 175, 161, 144, 131, 115, 108, 103, 98, 93, 90, 88, 86, 83, 83, 81, 81, 81, 81, 80, 80, 80, 80, 80, 80, 80, 80, 80, 80, 80, 80, 80, 80, 80, 80, 80, 80, 80, 80, 80, 80, 80, 80, 80, 80, 80, 80, 80, 80, 80, 80, 80, 80, 80, 80, 80, 80, 80, 80, 80, 80]"
Cond,DecisionB,Stage,accuracy,avg_rt,count_decision_sequence,count_loop1,count_trial_sequence,font_size,height,init_time,payoff,response,rt,subject_nr,synth_backend,tTrajectory,time_experiment,width,xTrajectory,yTrajectory
"NoTrust","Teilnehmer A hat Ihnen keine 2 Punkte übermittelt.","Payback","1","undefined","0","0","0","60","1080","481","0","1","2471","0","legacy","[11, 21, 31, 41, 51, 61, 71, 81, 91, 101, 111, 121, 131, 141, 151, 161, 171, 181, 191, 201, 211, 221, 231, 241, 251, 261, 271, 281, 291, 301, 311, 321, 331, 341, 351, 361, 371, 381, 391, 401, 411, 421, 431, 441, 451, 461, 471, 481, 491, 501, 511, 521, 531, 541, 551, 561, 571, 581, 591, 601, 611, 621, 631, 641, 651, 661, 671, 681, 691, 701, 711, 721, 731, 741, 751, 761, 771, 781, 791, 801, 811, 821, 831, 841, 851, 861, 871, 881, 891, 901, 911, 921, 931, 941, 951, 961, 971, 981, 991, 1001, 1011, 1021, 1031, 1041, 1051, 1061, 1071, 1081, 1091, 1101, 1111, 1121, 1131, 1141, 1151, 1161, 1171, 1181, 1191, 1201, 1211, 1221, 1231, 1241, 1251, 1261, 1271, 1281, 1291, 1301, 1311, 1321, 1331, 1341, 1351, 1361, 1371, 1381, 1391, 1401, 1411, 1421, 1431, 1441, 1451, 1461, 1471, 1481, 1491, 1501, 1511, 1521, 1531, 1541, 1551, 1561, 1571, 1581, 1591, 1601, 1611, 1621, 1631, 1641, 1651, 1661, 1671, 1681, 1691, 1701, 1711, 1721, 1731, 1741, 1751, 1761, 1771, 1781, 1791, 1801, 1811, 1821, 1831, 1841, 1851, 1861, 1871, 1881, 1891, 1901, 1911, 1921, 1931, 1941, 1951, 1961, 1971, 1981, 1991, 2001, 2011, 2021, 2031, 2041, 2051, 2061, 2071, 2081, 2091, 2101, 2111, 2121, 2131, 2141, 2151, 2161, 2171, 2181, 2191, 2201, 2211, 2221, 2231, 2241, 2251, 2261, 2271, 2281, 2291, 2301, 2311, 2321, 2331, 2341, 2351, 2361, 2371, 2381, 2391, 2401, 2411, 2421, 2431, 2441, 2451, 2461, 2471]","1081","1920","[960, 960, 960, 960, 960, 960, 960, 960, 960, 960, 958, 955, 955, 955, 955, 955, 955, 955, 955, 955, 955, 955, 955, 955, 955, 955, 955, 950, 947, 947, 947, 946, 946, 946, 946, 946, 941, 936, 930, 915, 908, 900, 890, 889, 888, 885, 882, 847, 819, 787, 751, 668, 634, 602, 577, 518, 488, 461, 436, 401, 389, 380, 374, 366, 366, 365, 364, 363, 363, 363, 363, 363, 363, 367, 371, 391, 400, 409, 421, 443, 455, 467, 477, 494, 501, 507, 514, 526, 530, 536, 542, 558, 565, 575, 585, 608, 618, 629, 639, 662, 675, 687, 696, 718, 724, 735, 744, 759, 766, 770, 771, 779, 788, 801, 814, 840, 855, 869, 885, 911, 923, 936, 948, 968, 975, 983, 992, 1005, 1012, 1019, 1026, 1042, 1051, 1056, 1062, 1070, 1073, 1078, 1081, 1083, 1083, 1083, 1083, 1083, 1083, 1083, 1083, 1083, 1083, 1083, 1083, 1083, 1083, 1083, 1083, 1083, 1083, 1083, 1083, 1083, 1083, 1083, 1086, 1091, 1099, 1106, 1111, 1140, 1159, 1185, 1206, 1260, 1283, 1309, 1335, 1393, 1422, 1451, 1484, 1550, 1583, 1620, 1647, 1699, 1721, 1738, 1752, 1778, 1787, 1798, 1804, 1815, 1818, 1821, 1824, 1827, 1830, 1830, 1831, 1833, 1833, 1833, 1833, 1833, 1833, 1833, 1833, 1833, 1833, 1833, 1833, 1830, 1830, 1829, 1827, 1827, 1827, 1827, 1827, 1827, 1827, 1827, 1827, 1827, 1827, 1827, 1827, 1827, 1827, 1827, 1827, 1827, 1827, 1827, 1827, 1827, 1827, 1827, 1827, 1827, 1827, 1827, 1827, 1827, 1827, 1827, 1827]","[1010, 1010, 1010, 1010, 1010, 1010, 1010, 1010, 1010, 1009, 1009, 1009, 1009, 1009, 1009, 1009, 1009, 1009, 1009, 1009, 1009, 1009, 1009, 1009, 1009, 1009, 1009, 1009, 1009, 1009, 1009, 1009, 1009, 1009, 1009, 1009, 1009, 1009, 1009, 1009, 1009, 1009, 1005, 1005, 1004, 996, 981, 903, 859, 797, 721, 586, 546, 518, 501, 472, 456, 439, 422, 402, 395, 391, 387, 384, 384, 384, 384, 384, 384, 384, 384, 384, 384, 391, 398, 424, 435, 443, 452, 471, 482, 489, 497, 509, 515, 520, 526, 536, 540, 544, 549, 561, 566, 573, 579, 589, 590, 593, 594, 600, 606, 610, 614, 620, 622, 624, 627, 628, 628, 628, 628, 628, 628, 626, 625, 621, 620, 618, 615, 610, 609, 608, 605, 601, 598, 597, 594, 591, 591, 589, 588, 588, 588, 588, 588, 589, 590, 594, 599, 603, 603, 603, 603, 603, 603, 603, 603, 603, 603, 603, 603, 603, 603, 603, 603, 603, 603, 603, 603, 603, 603, 603, 605, 607, 603, 598, 597, 582, 578, 570, 566, 550, 540, 529, 517, 491, 480, 468, 448, 409, 385, 354, 327, 276, 250, 231, 212, 175, 161, 144, 131, 115, 108, 103, 98, 93, 90, 88, 86, 83, 83, 81, 81, 81, 81, 80, 80, 80, 80, 80, 80, 80, 80, 80, 80, 80, 80, 80, 80, 80, 80, 80, 80, 80, 80, 80, 80, 80, 80, 80, 80, 80, 80, 80, 80, 80, 80, 80, 80, 80, 80, 80, 80, 80, 80, 80, 80]"
"Trust","Teilnehmer A hat Ihnen 2 Punkte übermittelt.","Payback","1","undefined","1","0","0","60","1080","371","5","1","3116","0","legacy","[11, 21, 31, 41, 51, 61, 71, 81, 91, 101, 111, 121, 131, 141, 151, 161, 171, 181, 191, 201, 211, 221, 231, 241, 251, 261, 271, 281, 291, 301, 311, 321, 331, 341, 351, 361, 371, 381, 391, 401, 411, 421, 431, 441, 451, 461, 471, 481, 491, 501, 511, 521, 531, 541, 551, 561, 571, 581, 591, 601, 611, 621, 631, 641, 651, 661, 671, 681, 691, 701, 711, 721, 731, 741, 751, 761, 771, 781, 791, 801, 811, 821, 831, 841, 851, 861, 871, 881, 891, 901, 911, 921, 931, 941, 951, 961, 971, 981, 991, 1001, 1011, 1021, 1031, 1041, 1051, 1061, 1071, 1081, 1091, 1101, 1111, 1121, 1131, 1141, 1151, 1161, 1171, 1181, 1191, 1201, 1211, 1221, 1231, 1241, 1251, 1261, 1271, 1281, 1291, 1301, 1311, 1321, 1331, 1341, 1351, 1361, 1371, 1381, 1391, 1401, 1411, 1421, 1431, 1441, 1451, 1461, 1471, 1481, 1491, 1501, 1511, 1521, 1531, 1541, 1551, 1561, 1571, 1581, 1591, 1601, 1611, 1621, 1631, 1641, 1651, 1661, 1671, 1681, 1691, 1701, 1711, 1721, 1731, 1741, 1751, 1761, 1771, 1781, 1791, 1801, 1811, 1821, 1831, 1841, 1851, 1861, 1871, 1881, 1891, 1901, 1911, 1921, 1931, 1941, 1951, 1961, 1971, 1981, 1991, 2001, 2011, 2021, 2031, 2041, 2051, 2061, 2071, 2081, 2091, 2101, 2111, 2121, 2131, 2141, 2151, 2161, 2171, 2181, 2191, 2201, 2211, 2221, 2231, 2241, 2251, 2261, 2271, 2281, 2291, 2301, 2311, 2321, 2331, 2341, 2351, 2361, 2371, 2381, 2391, 2401, 2411, 2421, 2431, 2441, 2451, 2461, 2471, 2481, 2491, 2501, 2511, 2521, 2531, 2541, 2551, 2561, 2571, 2581, 2591, 2601, 2611, 2621, 2631, 2641, 2651, 2661, 2671, 2681, 2691, 2701, 2711, 2721, 2731, 2741, 2751, 2761, 2771, 2781, 2791, 2801, 2811, 2821, 2831, 2841, 2851, 2861, 2871, 2881, 2891, 2901, 2911, 2921, 2931, 2941, 2951, 2961, 2971, 2981, 2991, 3001, 3011, 3021, 3031, 3041, 3051, 3061, 3071, 3081, 3091, 3101, 3111]","1081","1920","[960, 960, 960, 960, 960, 960, 960, 960, 958, 954, 953, 951, 951, 951, 951, 951, 951, 951, 951, 951, 951, 951, 951, 951, 951, 951, 951, 951, 951, 951, 951, 951, 955, 957, 966, 970, 976, 984, 998, 1008, 1023, 1034, 1067, 1084, 1104, 1125, 1160, 1170, 1179, 1186, 1194, 1199, 1203, 1209, 1223, 1228, 1237, 1238, 1238, 1238, 1238, 1238, 1238, 1238, 1238, 1238, 1238, 1238, 1238, 1238, 1238, 1238, 1238, 1238, 1238, 1238, 1238, 1238, 1238, 1238, 1238, 1238, 1238, 1238, 1238, 1238, 1238, 1238, 1238, 1238, 1238, 1238, 1238, 1238, 1238, 1238, 1238, 1238, 1238, 1238, 1238, 1238, 1238, 1238, 1238, 1238, 1238, 1238, 1238, 1238, 1238, 1238, 1238, 1238, 1237, 1236, 1236, 1234, 1233, 1233, 1233, 1231, 1231, 1231, 1230, 1230, 1230, 1230, 1230, 1230, 1229, 1228, 1226, 1225, 1224, 1224, 1224, 1224, 1224, 1224, 1224, 1224, 1224, 1224, 1224, 1224, 1224, 1224, 1224, 1224, 1224, 1222, 1220, 1217, 1215, 1211, 1207, 1194, 1187, 1179, 1170, 1153, 1148, 1143, 1140, 1135, 1133, 1132, 1129, 1126, 1123, 1123, 1122, 1122, 1122, 1122, 1122, 1122, 1122, 1122, 1122, 1122, 1122, 1122, 1122, 1122, 1122, 1122, 1122, 1122, 1122, 1122, 1122, 1122, 1122, 1122, 1122, 1122, 1122, 1122, 1122, 1122, 1122, 1122, 1122, 1122, 1122, 1122, 1122, 1122, 1122, 1122, 1122, 1122, 1122, 1122, 1122, 1122, 1122, 1122, 1122, 1122, 1122, 1122, 1122, 1122, 1122, 1122, 1122, 1122, 1122, 1122, 1122, 1122, 1122, 1122, 1122, 1125, 1126, 1129, 1133, 1140, 1147, 1157, 1168, 1193, 1210, 1226, 1253, 1311, 1345, 1378, 1410, 1487, 1527, 1554, 1583, 1610, 1617, 1623, 1626, 1635, 1638, 1642, 1644, 1651, 1655, 1658, 1659, 1664, 1668, 1670, 1673, 1685, 1691, 1701, 1708, 1721, 1728, 1732, 1736, 1740, 1740, 1742, 1742, 1742, 1742, 1742, 1742, 1742, 1742, 1742, 1742, 1742, 1742, 1742, 1742, 1742, 1742, 1742, 1742, 1742, 1742, 1742, 1742, 1742, 1742, 1742, 1742, 1742, 1742]","[1010, 1010, 1010, 1010, 1010, 1010, 1010, 1010, 1010, 1010, 1010, 1010, 1010, 1010, 1010, 1010, 1010, 1010, 1010, 1010, 1010, 1010, 1010, 1010, 1010, 1010, 1010, 1010, 1010, 1006, 995, 988, 979, 971, 952, 942, 933, 923, 903, 889, 867, 843, 795, 768, 742, 723, 697, 690, 684, 680, 677, 676, 675, 674, 674, 674, 674, 675, 675, 675, 675, 675, 675, 675, 675, 675, 675, 675, 675, 675, 675, 675, 675, 675, 675, 675, 675, 675, 675, 675, 675, 675, 675, 675, 675, 675, 675, 675, 675, 675, 675, 675, 675, 675, 675, 675, 675, 675, 674, 674, 673, 673, 673, 673, 673, 673, 673, 673, 673, 673, 673, 673, 673, 673, 673, 673, 673, 673, 673, 673, 673, 673, 673, 673, 673, 673, 673, 673, 673, 673, 673, 673, 673, 673, 673, 673, 673, 673, 673, 673, 673, 673, 673, 673, 673, 673, 673, 673, 673, 673, 673, 673, 673, 673, 673, 673, 673, 673, 673, 673, 673, 673, 673, 673, 673, 673, 673, 673, 673, 673, 673, 673, 673, 673, 673, 673, 673, 673, 673, 673, 673, 673, 673, 673, 673, 673, 673, 673, 673, 673, 673, 673, 673, 673, 673, 673, 673, 673, 673, 673, 673, 673, 673, 673, 673, 673, 673, 673, 673, 673, 673, 673, 673, 673, 673, 673, 673, 673, 673, 673, 673, 673, 673, 673, 673, 673, 673, 673, 673, 673, 673, 673, 673, 673, 672, 671, 669, 667, 666, 664, 661, 656, 652, 647, 640, 623, 612, 601, 585, 539, 508, 476, 446, 376, 342, 315, 290, 251, 233, 220, 208, 189, 182, 173, 169, 160, 155, 152, 149, 144, 140, 138, 134, 126, 121, 114, 109, 99, 95, 92, 90, 86, 85, 85, 84, 83, 83, 83, 83, 83, 83, 83, 83, 83, 83, 83, 83, 83, 83, 83, 83, 83, 83, 83, 83, 83, 83, 83, 83, 83, 83]"
"Trust","Teilnehmer A hat Ihnen 2 Punkte übermittelt.","Payback","1","undefined","2","0","0","60","1080","301","5","1","1582","0","legacy","[11, 21, 31, 41, 51, 61, 71, 81, 91, 101, 111, 121, 131, 141, 151, 161, 171, 181, 191, 201, 211, 221, 231, 241, 251, 261, 271, 281, 291, 301, 311, 321, 331, 341, 351, 361, 371, 381, 391, 401, 411, 421, 431, 441, 451, 461, 471, 481, 491, 501, 511, 521, 531, 541, 551, 561, 571, 581, 591, 601, 611, 621, 631, 641, 651, 661, 671, 681, 691, 701, 711, 721, 731, 741, 751, 761, 771, 781, 791, 801, 811, 821, 831, 841, 851, 861, 871, 881, 891, 901, 911, 921, 931, 941, 951, 961, 971, 981, 991, 1001, 1011, 1021, 1031, 1041, 1051, 1061, 1071, 1081, 1091, 1101, 1111, 1121, 1131, 1141, 1151, 1161, 1171, 1181, 1191, 1201, 1211, 1221, 1231, 1241, 1251, 1261, 1271, 1281, 1291, 1301, 1311, 1321, 1331, 1341, 1351, 1361, 1371, 1381, 1391, 1401, 1411, 1421, 1431, 1441, 1451, 1461, 1471, 1481, 1491, 1501, 1511, 1521, 1531, 1541, 1551, 1561, 1571, 1581]","1081","1920","[960, 960, 960, 960, 960, 960, 960, 960, 960, 960, 960, 960, 960, 960, 960, 960, 960, 960, 960, 961, 962, 962, 966, 970, 973, 980, 993, 1002, 1011, 1025, 1073, 1105, 1142, 1178, 1246, 1279, 1301, 1326, 1358, 1374, 1395, 1417, 1454, 1466, 1475, 1482, 1484, 1485, 1485, 1485, 1482, 1476, 1472, 1467, 1458, 1454, 1451, 1445, 1432, 1426, 1423, 1418, 1410, 1408, 1408, 1408, 1422, 1431, 1439, 1445, 1458, 1463, 1468, 1473, 1488, 1494, 1500, 1506, 1518, 1521, 1524, 1526, 1530, 1530, 1532, 1532, 1534, 1535, 1538, 1538, 1539, 1541, 1541, 1542, 1542, 1542, 1542, 1542, 1543, 1543, 1543, 1543, 1545, 1546, 1547, 1548, 1552, 1553, 1556, 1558, 1563, 1568, 1572, 1575, 1584, 1592, 1601, 1609, 1628, 1639, 1649, 1661, 1685, 1696, 1704, 1712, 1721, 1729, 1733, 1739, 1750, 1761, 1772, 1781, 1794, 1796, 1797, 1797, 1797, 1797, 1797, 1797, 1797, 1796, 1795, 1795, 1795, 1795, 1795, 1794, 1794, 1794, 1794, 1794, 1794, 1794, 1794, 1794]","[1010, 1010, 1010, 1010, 1010, 1010, 1007, 1007, 1005, 1005, 1005, 1005, 1005, 1005, 1005, 1005, 1005, 1005, 1005, 1005, 1003, 1001, 997, 993, 989, 983, 969, 959, 950, 935, 889, 861, 832, 807, 769, 749, 734, 718, 693, 679, 659, 636, 598, 585, 575, 565, 558, 556, 555, 554, 551, 549, 546, 545, 542, 542, 542, 540, 538, 536, 535, 532, 529, 527, 527, 524, 503, 492, 477, 465, 444, 437, 429, 422, 407, 402, 395, 389, 373, 369, 364, 361, 352, 349, 344, 342, 334, 331, 326, 323, 317, 314, 309, 306, 298, 294, 289, 285, 276, 272, 268, 265, 256, 252, 247, 245, 232, 225, 217, 208, 190, 182, 174, 168, 157, 149, 140, 132, 116, 108, 102, 95, 83, 78, 74, 71, 67, 64, 63, 62, 62, 62, 62, 62, 64, 64, 65, 65, 65, 65, 65, 65, 65, 65, 66, 66, 66, 66, 66, 66, 67, 67, 67, 67, 67, 67, 67, 67]"
"Promise","Wie oft werden Sie die Hälfte zurückgeben?","Promise","1","undefined","2","0","1","60","1080","651","5","1","1912","0","legacy","[11, 21, 31, 41, 51, 61, 71, 81, 91, 101, 111, 121, 131, 141, 151, 161, 171, 181, 191, 201, 211, 221, 231, 241, 251, 261, 271, 281, 291, 301, 311, 321, 331, 341, 351, 361, 371, 381, 391, 401, 411, 421, 431, 441, 451, 461, 471, 481, 491, 501, 511, 521, 531, 541, 551, 561, 571, 581, 591, 601, 611, 621, 631, 641, 651, 661, 671, 681, 691, 701, 711, 721, 731, 741, 751, 761, 771, 781, 791, 801, 811, 821, 831, 841, 851, 861, 871, 881, 891, 901, 911, 921, 931, 941, 951, 961, 971, 981, 991, 1001, 1011, 1021, 1031, 1041, 1051, 1061, 1071, 1081, 1091, 1101, 1111, 1121, 1131, 1141, 1151, 1161, 1171, 1181, 1191, 1201, 1211, 1221, 1231, 1241, 1251, 1261, 1271, 1281, 1291, 1301, 1311, 1321, 1331, 1341, 1351, 1361, 1371, 1381, 1391, 1401, 1411, 1421, 1431, 1441, 1451, 1461, 1471, 1481, 1491, 1501, 1511, 1521, 1531, 1541, 1551, 1561, 1571, 1581, 1591, 1601, 1611, 1621, 1631, 1641, 1651, 1661, 1671, 1681, 1691, 1701, 1711, 1721, 1731, 1741, 1751, 1761, 1771, 1781, 1791, 1801, 1811, 1821, 1831, 1841, 1851, 1861, 1871, 1881, 1891, 1901, 1911]","1081","1920","[960, 960, 960, 960, 960, 960, 960, 960, 960, 960, 960, 960, 960, 960, 960, 960, 960, 960, 960, 960, 960, 960, 960, 960, 960, 960, 960, 960, 960, 960, 960, 960, 960, 960, 960, 960, 960, 960, 960, 959, 959, 959, 959, 959, 959, 959, 959, 959, 959, 959, 959, 959, 959, 957, 957, 956, 956, 956, 956, 956, 955, 955, 958, 965, 970, 978, 984, 1001, 1007, 1013, 1018, 1034, 1041, 1056, 1069, 1089, 1098, 1107, 1115, 1133, 1143, 1149, 1159, 1174, 1184, 1191, 1200, 1214, 1221, 1225, 1231, 1240, 1246, 1254, 1265, 1289, 1307, 1330, 1352, 1398, 1418, 1440, 1461, 1498, 1524, 1554, 1578, 1638, 1664, 1694, 1720, 1763, 1781, 1795, 1805, 1825, 1833, 1840, 1844, 1850, 1850, 1850, 1850, 1850, 1850, 1850, 1850, 1849, 1849, 1849, 1848, 1846, 1846, 1846, 1845, 1844, 1844, 1842, 1840, 1837, 1836, 1833, 1833, 1830, 1830, 1829, 1829, 1828, 1828, 1828, 1828, 1828, 1828, 1828, 1828, 1828, 1828, 1828, 1828, 1828, 1828, 1828, 1828, 1828, 1828, 1828, 1828, 1828, 1828, 1828, 1828, 1828, 1828, 1828, 1828, 1828, 1828, 1828, 1828, 1828, 1828, 1828, 1828, 1828, 1828, 1828, 1828, 1828, 1828, 1828, 1828]","[1010, 1010, 1010, 1010, 1010, 1010, 1010, 1010, 1010, 1010, 1010, 1010, 1010, 1010, 1010, 1010, 1010, 1010, 1010, 1010, 1010, 1010, 1010, 1010, 1010, 1010, 1010, 1010, 1010, 1010, 1010, 1010, 1010, 1010, 1010, 1010, 1010, 1010, 1010, 1010, 1010, 1010, 1010, 1010, 1010, 1010, 1010, 1010, 1010, 1010, 1010, 1010, 1010, 1010, 1011, 1012, 1012, 1012, 1012, 1012, 1008, 991, 978, 948, 930, 914, 896, 869, 854, 829, 805, 762, 741, 719, 699, 666, 652, 643, 636, 620, 614, 610, 606, 597, 592, 589, 585, 580, 577, 575, 573, 571, 569, 567, 565, 557, 553, 546, 538, 523, 516, 503, 493, 464, 446, 426, 404, 357, 336, 316, 298, 264, 248, 232, 218, 183, 167, 149, 137, 118, 112, 106, 102, 95, 94, 92, 91, 88, 88, 86, 84, 82, 81, 80, 78, 77, 77, 77, 77, 77, 77, 77, 77, 77, 77, 77, 77, 77, 77, 77, 77, 77, 77, 77, 77, 77, 77, 77, 77, 77, 77, 77, 77, 77, 77, 77, 77, 77, 77, 77, 77, 77, 77, 77, 77, 77, 77, 77, 77, 77, 77, 77, 77, 77, 77, 77, 77, 77, 77, 77, 77]"
"Trust","Teilnehmer A hat Ihnen 2 Punkte übermittelt.","Payback","1","undefined","3","0","1","60","1080","291","5","1","1015","0","legacy","[11, 21, 31, 41, 51, 61, 71, 81, 91, 101, 111, 121, 131, 141, 151, 161, 171, 181, 191, 201, 211, 221, 231, 241, 251, 261, 271, 281, 291, 301, 311, 321, 331, 341, 351, 361, 371, 381, 391, 401, 411, 421, 431, 441, 451, 461, 471, 481, 491, 501, 511, 521, 531, 541, 551, 561, 571, 581, 591, 601, 611, 621, 631, 641, 651, 661, 671, 681, 691, 701, 711, 721, 731, 741, 751, 761, 771, 781, 791, 801, 811, 821, 831, 841, 851, 861, 871, 881, 891, 901, 911, 921, 931, 941, 951, 961, 971, 981, 991, 1001, 1011]","1081","1920","[960, 960, 960, 960, 960, 960, 960, 960, 960, 960, 960, 960, 960, 960, 960, 960, 960, 960, 960, 960, 960, 960, 961, 966, 972, 983, 996, 1041, 1070, 1094, 1124, 1200, 1253, 1303, 1361, 1479, 1541, 1604, 1669, 1779, 1822, 1853, 1885, 1919, 1919, 1919, 1919, 1919, 1919, 1919, 1919, 1919, 1919, 1919, 1919, 1919, 1919, 1918, 1915, 1906, 1902, 1898, 1896, 1894, 1893, 1892, 1892, 1891, 1890, 1890, 1888, 1887, 1885, 1884, 1883, 1882, 1880, 1879, 1878, 1875, 1874, 1871, 1867, 1857, 1851, 1842, 1834, 1819, 1811, 1806, 1800, 1790, 1789, 1789, 1789, 1789, 1789, 1789, 1789, 1789, 1789]","[1010, 1010, 1010, 1010, 1010, 1010, 1010, 1010, 1010, 1010, 1010, 1010, 1010, 1010, 1010, 1010, 1010, 1010, 1010, 1010, 1010, 1010, 1009, 1004, 1000, 995, 987, 953, 930, 908, 876, 798, 757, 703, 636, 514, 456, 391, 335, 233, 182, 142, 105, 53, 26, 2, 0, 0, 0, 0, 0, 0, 0, 0, 0, 0, 0, 0, 0, 0, 0, 0, 0, 0, 0, 0, 0, 0, 0, 2, 5, 11, 14, 18, 22, 29, 31, 36, 38, 46, 47, 51, 55, 62, 66, 72, 76, 82, 84, 86, 87, 89, 89, 89, 89, 89, 89, 89, 89, 89, 89]"
"Trust","Teilnehmer A hat Ihnen 2 Punkte übermittelt.","Payback","1","undefined","4","0","1","60","1080","361","5","1","1358","0","legacy","[11, 21, 31, 41, 51, 61, 71, 81, 91, 101, 111, 121, 131, 141, 151, 161, 171, 181, 191, 201, 211, 221, 231, 241, 251, 261, 271, 281, 291, 301, 311, 321, 331, 341, 351, 361, 371, 381, 391, 401, 411, 421, 431, 441, 451, 461, 471, 481, 491, 501, 511, 521, 531, 541, 551, 561, 571, 581, 591, 601, 611, 621, 631, 641, 651, 661, 671, 681, 691, 701, 711, 721, 731, 741, 751, 761, 771, 781, 791, 801, 811, 821, 831, 841, 851, 861, 871, 881, 891, 901, 911, 921, 931, 941, 951, 961, 971, 981, 991, 1001, 1011, 1021, 1031, 1041, 1051, 1061, 1071, 1081, 1091, 1101, 1111, 1121, 1131, 1141, 1151, 1161, 1171, 1181, 1191, 1201, 1211, 1221, 1231, 1241, 1251, 1261, 1271, 1281, 1291, 1301, 1311, 1321, 1331, 1341, 1351]","1081","1920","[960, 960, 960, 960, 960, 960, 960, 960, 960, 959, 959, 959, 959, 959, 959, 959, 959, 959, 959, 959, 959, 959, 959, 959, 959, 959, 961, 963, 964, 966, 973, 979, 986, 993, 1012, 1023, 1045, 1069, 1135, 1174, 1215, 1251, 1333, 1368, 1400, 1425, 1471, 1494, 1513, 1526, 1549, 1559, 1567, 1574, 1588, 1593, 1596, 1600, 1604, 1607, 1608, 1609, 1610, 1610, 1610, 1610, 1610, 1610, 1610, 1610, 1610, 1610, 1608, 1606, 1602, 1601, 1597, 1593, 1583, 1581, 1581, 1581, 1581, 1581, 1581, 1581, 1581, 1581, 1581, 1581, 1582, 1583, 1585, 1586, 1592, 1594, 1598, 1603, 1610, 1615, 1620, 1625, 1641, 1650, 1656, 1666, 1681, 1687, 1693, 1697, 1708, 1713, 1716, 1723, 1730, 1731, 1733, 1733, 1733, 1733, 1733, 1733, 1733, 1733, 1733, 1733, 1733, 1733, 1733, 1733, 1733, 1733, 1733, 1733, 1733]","[1010, 1010, 1010, 1010, 1010, 1010, 1010, 1010, 1010, 1010, 1010, 1010, 1010, 1010, 1010, 1010, 1010, 1010, 1009, 1009, 1009, 1008, 1007, 1005, 1005, 1004, 999, 996, 994, 991, 983, 977, 971, 963, 944, 928, 907, 883, 810, 770, 727, 687, 605, 568, 535, 509, 456, 428, 402, 382, 346, 334, 323, 313, 294, 286, 280, 273, 265, 259, 255, 252, 248, 248, 248, 248, 248, 248, 248, 248, 248, 247, 247, 245, 244, 243, 241, 240, 239, 239, 239, 239, 239, 239, 238, 237, 234, 232, 230, 230, 225, 221, 217, 214, 205, 201, 197, 191, 183, 177, 170, 165, 150, 143, 137, 131, 121, 117, 112, 110, 101, 98, 95, 91, 87, 86, 84, 84, 84, 84, 84, 84, 84, 84, 84, 84, 84, 84, 84, 84, 84, 84, 84, 84, 84]"
"Trust","Teilnehmer A hat Ihnen 2 Punkte übermittelt.","Payback","1","undefined","5","0","1","60","1080","221","5","1","1999","0","legacy","[11, 21, 31, 41, 51, 61, 71, 81, 91, 101, 111, 121, 131, 141, 151, 161, 171, 181, 191, 201, 211, 221, 231, 241, 251, 261, 271, 281, 291, 301, 311, 321, 331, 341, 351, 361, 371, 381, 391, 401, 411, 421, 431, 441, 451, 461, 471, 481, 491, 501, 511, 521, 531, 541, 551, 561, 571, 581, 591, 601, 611, 621, 631, 641, 651, 661, 671, 681, 691, 701, 711, 721, 731, 741, 751, 761, 771, 781, 791, 801, 811, 821, 831, 841, 851, 861, 871, 881, 891, 901, 911, 921, 931, 941, 951, 961, 971, 981, 991, 1001, 1011, 1021, 1031, 1041, 1051, 1061, 1071, 1081, 1091, 1101, 1111, 1121, 1131, 1141, 1151, 1161, 1171, 1181, 1191, 1201, 1211, 1221, 1231, 1241, 1251, 1261, 1271, 1281, 1291, 1301, 1311, 1321, 1331, 1341, 1351, 1361, 1371, 1381, 1391, 1401, 1411, 1421, 1431, 1441, 1451, 1461, 1471, 1481, 1491, 1501, 1511, 1521, 1531, 1541, 1551, 1561, 1571, 1581, 1591, 1601, 1611, 1621, 1631, 1641, 1651, 1661, 1671, 1681, 1691, 1701, 1711, 1721, 1731, 1741, 1751, 1761, 1771, 1781, 1791, 1801, 1811, 1821, 1831, 1841, 1851, 1861, 1871, 1881, 1891, 1901, 1911, 1921, 1931, 1941, 1951, 1961, 1971, 1981, 1991]","1081","1920","[960, 960, 960, 960, 960, 960, 960, 960, 960, 959, 959, 959, 959, 959, 959, 959, 960, 963, 967, 984, 999, 1031, 1061, 1121, 1155, 1187, 1209, 1264, 1283, 1306, 1325, 1377, 1402, 1436, 1467, 1533, 1558, 1587, 1616, 1672, 1696, 1716, 1740, 1775, 1786, 1794, 1800, 1806, 1808, 1808, 1808, 1808, 1808, 1808, 1808, 1808, 1808, 1808, 1808, 1808, 1808, 1805, 1800, 1796, 1795, 1795, 1795, 1796, 1797, 1797, 1798, 1798, 1798, 1798, 1798, 1798, 1798, 1798, 1798, 1798, 1798, 1798, 1799, 1799, 1799, 1799, 1799, 1799, 1799, 1800, 1800, 1800, 1800, 1800, 1800, 1800, 1800, 1800, 1800, 1800, 1800, 1800, 1800, 1800, 1800, 1800, 1800, 1800, 1800, 1800, 1800, 1800, 1800, 1800, 1800, 1800, 1800, 1800, 1800, 1800, 1800, 1800, 1800, 1800, 1800, 1800, 1800, 1800, 1800, 1800, 1800, 1800, 1800, 1800, 1800, 1800, 1800, 1800, 1800, 1800, 1800, 1800, 1800, 1800, 1800, 1800, 1800, 1800, 1800, 1800, 1800, 1800, 1800, 1800, 1800, 1800, 1800, 1800, 1800, 1800, 1800, 1800, 1800, 1800, 1800, 1800, 1800, 1800, 1800, 1800, 1800, 1800, 1800, 1800, 1800, 1800, 1800, 1800, 1800, 1800, 1800, 1800, 1800, 1800, 1800, 1800, 1800, 1800, 1800, 1800, 1800, 1800, 1800, 1800, 1800, 1800, 1800, 1800, 1800]","[1010, 1010, 1010, 1010, 1010, 1010, 1010, 1010, 1010, 1009, 1009, 1009, 1009, 1009, 1009, 1008, 1006, 1002, 996, 979, 963, 933, 901, 814, 762, 702, 648, 558, 520, 479, 451, 378, 340, 300, 263, 193, 167, 139, 114, 62, 39, 22, 2, 0, 0, 0, 0, 0, 0, 0, 0, 0, 0, 0, 0, 0, 0, 0, 0, 0, 2, 9, 19, 43, 55, 66, 76, 90, 94, 100, 103, 110, 112, 114, 114, 115, 115, 115, 115, 115, 115, 115, 116, 116, 116, 116, 116, 115, 115, 114, 113, 112, 111, 110, 110, 110, 110, 110, 110, 110, 109, 109, 109, 108, 107, 106, 106, 106, 106, 106, 106, 106, 106, 106, 106, 106, 106, 106, 106, 106, 106, 106, 106, 106, 106, 106, 106, 106, 106, 106, 106, 106, 106, 106, 106, 106, 106, 106, 106, 106, 106, 106, 106, 106, 106, 106, 106, 106, 106, 106, 106, 106, 106, 106, 106, 106, 106, 106, 106, 106, 106, 106, 106, 106, 106, 106, 106, 106, 106, 106, 106, 106, 106, 106, 106, 106, 106, 106, 106, 106, 106, 106, 106, 106, 106, 106, 106, 106, 106, 106, 106, 106, 106, 106, 106, 106, 106, 106, 106]"
"Promise","Wie oft werden Sie die Hälfte zurückgeben?","Promise","1","undefined","5","0","2","60","1080","261","5","1","929","0","legacy","[11, 21, 31, 41, 51, 61, 71, 81, 91, 101, 111, 121, 131, 141, 151, 161, 171, 181, 191, 201, 211, 221, 231, 241, 251, 261, 271, 281, 291, 301, 311, 321, 331, 341, 351, 361, 371, 381, 391, 401, 411, 421, 431, 441, 451, 461, 471, 481, 491, 501, 511, 521, 531, 541, 551, 561, 571, 581, 591, 601, 611, 621, 631, 641, 651, 661, 671, 681, 691, 701, 711, 721, 731, 741, 751, 761, 771, 781, 791, 801, 811, 821, 831, 841, 851, 861, 871, 881, 891, 901, 911, 921]","1081","1920","[960, 960, 960, 960, 960, 960, 960, 960, 960, 960, 960, 960, 960, 960, 960, 960, 960, 960, 960, 960, 962, 965, 969, 976, 1004, 1026, 1056, 1093, 1218, 1285, 1350, 1401, 1473, 1495, 1509, 1531, 1561, 1570, 1574, 1580, 1584, 1585, 1585, 1585, 1585, 1585, 1583, 1582, 1581, 1580, 1577, 1577, 1573, 1573, 1573, 1573, 1573, 1573, 1573, 1573, 1573, 1573, 1573, 1573, 1581, 1590, 1595, 1605, 1629, 1642, 1657, 1671, 1697, 1710, 1722, 1731, 1743, 1744, 1745, 1745, 1745, 1745, 1745, 1745, 1745, 1745, 1744, 1744, 1743, 1743, 1743, 1743]","[1010, 1010, 1010, 1010, 1010, 1010, 1010, 1010, 1010, 1010, 1010, 1010, 1010, 1010, 1010, 1010, 1010, 1010, 1009, 1008, 1004, 999, 994, 986, 958, 934, 904, 867, 729, 645, 567, 502, 410, 379, 354, 314, 247, 217, 198, 175, 149, 140, 133, 127, 122, 120, 117, 115, 114, 113, 108, 107, 101, 100, 100, 100, 100, 100, 100, 100, 100, 100, 100, 100, 100, 98, 97, 96, 91, 89, 89, 87, 81, 80, 79, 79, 79, 79, 79, 79, 79, 79, 79, 79, 79, 79, 79, 79, 79, 79, 79, 79]"
"Trust","Teilnehmer A hat Ihnen 2 Punkte übermittelt.","Payback","1","undefined","6","0","2","60","1080","201","5","1","837","0","legacy","[11, 21, 31, 41, 51, 61, 71, 81, 91, 101, 111, 121, 131, 141, 151, 161, 171, 181, 191, 201, 211, 221, 231, 241, 251, 261, 271, 281, 291, 301, 311, 321, 331, 341, 351, 361, 371, 381, 391, 401, 411, 421, 431, 441, 451, 461, 471, 481, 491, 501, 511, 521, 531, 541, 551, 561, 571, 581, 591, 601, 611, 621, 631, 641, 651, 661, 671, 681, 691, 701, 711, 721, 731, 741, 751, 761, 771, 781, 791, 801, 811, 821, 831]","1081","1920","[960, 960, 960, 960, 960, 960, 960, 960, 956, 954, 952, 952, 952, 952, 957, 962, 970, 978, 1001, 1015, 1035, 1064, 1149, 1196, 1245, 1301, 1395, 1437, 1484, 1526, 1582, 1602, 1625, 1647, 1687, 1706, 1719, 1731, 1747, 1753, 1757, 1758, 1764, 1766, 1767, 1769, 1771, 1775, 1777, 1782, 1801, 1811, 1820, 1825, 1830, 1830, 1830, 1830, 1830, 1830, 1829, 1824, 1815, 1809, 1805, 1801, 1793, 1790, 1789, 1789, 1788, 1786, 1786, 1785, 1783, 1783, 1783, 1783, 1783, 1783, 1783, 1783, 1783]","[1010, 1010, 1010, 1010, 1010, 1010, 1010, 1007, 1004, 1000, 998, 998, 996, 995, 987, 983, 976, 971, 951, 936, 913, 876, 769, 705, 638, 571, 448, 395, 349, 301, 235, 204, 176, 142, 88, 68, 53, 38, 20, 13, 8, 4, 0, 0, 0, 0, 0, 0, 0, 0, 0, 0, 0, 0, 0, 0, 0, 0, 0, 0, 3, 12, 36, 46, 58, 66, 77, 80, 83, 84, 85, 86, 86, 86, 87, 87, 87, 87, 87, 87, 87, 87, 87]"
"NoTrust","Teilnehmer A hat Ihnen keine 2 Punkte übermittelt.","Payback","1","undefined","7","0","2","60","1080","201","0","1","837","0","legacy","[11, 21, 31, 41, 51, 61, 71, 81, 91, 101, 111, 121, 131, 141, 151, 161, 171, 181, 191, 201, 211, 221, 231, 241, 251, 261, 271, 281, 291, 301, 311, 321, 331, 341, 351, 361, 371, 381, 391, 401, 411, 421, 431, 441, 451, 461, 471, 481, 491, 501, 511, 521, 531, 541, 551, 561, 571, 581, 591, 601, 611, 621, 631, 641, 651, 661, 671, 681, 691, 701, 711, 721, 731, 741, 751, 761, 771, 781, 791, 801, 811, 821, 831]","1081","1920","[960, 960, 960, 960, 960, 960, 960, 960, 956, 954, 952, 952, 952, 952, 957, 962, 970, 978, 1001, 1015, 1035, 1064, 1149, 1196, 1245, 1301, 1395, 1437, 1484, 1526, 1582, 1602, 1625, 1647, 1687, 1706, 1719, 1731, 1747, 1753, 1757, 1758, 1764, 1766, 1767, 1769, 1771, 1775, 1777, 1782, 1801, 1811, 1820, 1825, 1830, 1830, 1830, 1830, 1830, 1830, 1829, 1824, 1815, 1809, 1805, 1801, 1793, 1790, 1789, 1789, 1788, 1786, 1786, 1785, 1783, 1783, 1783, 1783, 1783, 1783, 1783, 1783, 1783]","[1010, 1010, 1010, 1010, 1010, 1010, 1010, 1007, 1004, 1000, 998, 998, 996, 995, 987, 983, 976, 971, 951, 936, 913, 876, 769, 705, 638, 571, 448, 395, 349, 301, 235, 204, 176, 142, 88, 68, 53, 38, 20, 13, 8, 4, 0, 0, 0, 0, 0, 0, 0, 0, 0, 0, 0, 0, 0, 0, 0, 0, 0, 0, 3, 12, 36, 46, 58, 66, 77, 80, 83, 84, 85, 86, 86, 86, 87, 87, 87, 87, 87, 87, 87, 87, 87]"
"Trust","Teilnehmer A hat Ihnen 2 Punkte übermittelt.","Payback","1","undefined","8","0","2","60","1080","221","5","1","1159","0","legacy","[11, 21, 31, 41, 51, 61, 71, 81, 91, 101, 111, 121, 131, 141, 151, 161, 171, 181, 191, 201, 211, 221, 231, 241, 251, 261, 271, 281, 291, 301, 311, 321, 331, 341, 351, 361, 371, 381, 391, 401, 411, 421, 431, 441, 451, 461, 471, 481, 491, 501, 511, 521, 531, 541, 551, 561, 571, 581, 591, 601, 611, 621, 631, 641, 651, 661, 671, 681, 691, 701, 711, 721, 731, 741, 751, 761, 771, 781, 791, 801, 811, 821, 831, 841, 851, 861, 871, 881, 891, 901, 911, 921, 931, 941, 951, 961, 971, 981, 991, 1001, 1011, 1021, 1031, 1041, 1051, 1061, 1071, 1081, 1091, 1101, 1111, 1121, 1131, 1141, 1151]","1081","1920","[960, 960, 960, 960, 960, 960, 960, 960, 960, 960, 960, 960, 960, 960, 960, 960, 960, 960, 962, 983, 1012, 1044, 1089, 1180, 1228, 1270, 1314, 1401, 1446, 1487, 1526, 1606, 1636, 1671, 1712, 1778, 1795, 1807, 1814, 1826, 1830, 1833, 1834, 1836, 1836, 1836, 1836, 1836, 1836, 1836, 1836, 1836, 1836, 1836, 1836, 1836, 1836, 1836, 1836, 1836, 1835, 1833, 1829, 1823, 1820, 1816, 1812, 1805, 1801, 1798, 1794, 1788, 1786, 1782, 1778, 1773, 1773, 1773, 1773, 1773, 1773, 1773, 1773, 1773, 1773, 1773, 1773, 1773, 1773, 1773, 1773, 1773, 1773, 1773, 1773, 1773, 1773, 1773, 1773, 1773, 1773, 1773, 1773, 1773, 1773, 1773, 1773, 1773, 1773, 1773, 1773, 1773, 1773, 1773, 1773]","[1010, 1010, 1010, 1010, 1010, 1010, 1010, 1010, 1010, 1010, 1010, 1010, 1010, 1010, 1010, 1010, 1010, 1010, 1002, 981, 956, 928, 891, 814, 770, 736, 690, 593, 552, 513, 482, 414, 382, 332, 279, 196, 176, 161, 151, 134, 128, 125, 123, 120, 120, 120, 120, 120, 120, 120, 120, 120, 120, 120, 120, 120, 120, 120, 120, 120, 120, 119, 119, 119, 119, 117, 117, 116, 116, 116, 116, 115, 113, 113, 113, 113, 113, 113, 113, 113, 113, 113, 113, 113, 113, 113, 113, 113, 113, 113, 113, 113, 113, 113, 113, 113, 113, 113, 113, 113, 113, 113, 113, 113, 113, 113, 113, 113, 113, 113, 113, 113, 113, 113, 113]"
"Promise","Wie oft werden Sie die Hälfte zurückgeben?","Promise","1","undefined","8","0","3","60","1080","191","5","1","1225","0","legacy","[11, 21, 31, 41, 51, 61, 71, 81, 91, 101, 111, 121, 131, 141, 151, 161, 171, 181, 191, 201, 211, 221, 231, 241, 251, 261, 271, 281, 291, 301, 311, 321, 331, 341, 351, 361, 371, 381, 391, 401, 411, 421, 431, 441, 451, 461, 471, 481, 491, 501, 511, 521, 531, 541, 551, 561, 571, 581, 591, 601, 611, 621, 631, 641, 651, 661, 671, 681, 691, 701, 711, 721, 731, 741, 751, 761, 771, 781, 791, 801, 811, 821, 831, 841, 851, 861, 871, 881, 891, 901, 911, 921, 931, 941, 951, 961, 971, 981, 991, 1001, 1011, 1021, 1031, 1041, 1051, 1061, 1071, 1081, 1091, 1101, 1111, 1121, 1131, 1141, 1151, 1161, 1171, 1181, 1191, 1201, 1211, 1221]","1081","1920","[960, 960, 960, 960, 960, 960, 958, 957, 954, 954, 954, 954, 954, 954, 955, 961, 980, 1003, 1033, 1067, 1148, 1192, 1230, 1273, 1372, 1424, 1459, 1497, 1551, 1570, 1583, 1590, 1610, 1620, 1628, 1636, 1646, 1646, 1648, 1648, 1648, 1648, 1648, 1648, 1648, 1648, 1648, 1648, 1648, 1648, 1649, 1649, 1649, 1650, 1650, 1653, 1656, 1658, 1662, 1667, 1678, 1681, 1684, 1689, 1697, 1702, 1706, 1709, 1715, 1718, 1722, 1725, 1731, 1732, 1733, 1734, 1735, 1735, 1735, 1735, 1735, 1736, 1736, 1736, 1736, 1736, 1736, 1736, 1736, 1736, 1736, 1736, 1736, 1736, 1736, 1736, 1736, 1736, 1736, 1736, 1735, 1735, 1735, 1735, 1734, 1734, 1734, 1734, 1733, 1732, 1732, 1732, 1732, 1731, 1731, 1731, 1731, 1731, 1731, 1731, 1731, 1731]","[1010, 1010, 1010, 1010, 1010, 1010, 1007, 1005, 1002, 1002, 1002, 1000, 997, 995, 990, 984, 968, 950, 930, 902, 827, 784, 743, 690, 567, 512, 465, 425, 361, 336, 314, 301, 270, 256, 244, 233, 220, 217, 216, 216, 216, 216, 216, 216, 216, 216, 216, 216, 216, 216, 214, 213, 210, 207, 205, 202, 193, 189, 182, 174, 155, 146, 139, 129, 110, 100, 93, 84, 73, 67, 61, 55, 46, 44, 42, 41, 38, 38, 38, 38, 38, 38, 38, 38, 38, 38, 38, 38, 38, 38, 38, 38, 38, 38, 38, 38, 41, 42, 42, 44, 46, 46, 47, 48, 49, 50, 50, 52, 52, 53, 53, 54, 54, 54, 54, 54, 54, 54, 54, 54, 54, 54]"
"Trust","Teilnehmer A hat Ihnen 2 Punkte übermittelt.","Payback","1","undefined","9","0","3","60","1080","231","5","1","900","0","legacy","[11, 21, 31, 41, 51, 61, 71, 81, 91, 101, 111, 121, 131, 141, 151, 161, 171, 181, 191, 201, 211, 221, 231, 241, 251, 261, 271, 281, 291, 301, 311, 321, 331, 341, 351, 361, 371, 381, 391, 401, 411, 421, 431, 441, 451, 461, 471, 481, 491, 501, 511, 521, 531, 541, 551, 561, 571, 581, 591, 601, 611, 621, 631, 641, 651, 661, 671, 681, 691, 701, 711, 721, 731, 741, 751, 761, 771, 781, 791, 801, 811, 821, 831, 841, 851, 861, 871, 881, 891]","1081","1920","[960, 960, 961, 961, 961, 961, 962, 962, 962, 963, 963, 963, 963, 963, 963, 963, 963, 966, 967, 970, 972, 987, 1001, 1020, 1052, 1115, 1142, 1171, 1210, 1275, 1301, 1340, 1385, 1471, 1501, 1529, 1546, 1575, 1588, 1595, 1603, 1616, 1619, 1623, 1626, 1629, 1630, 1630, 1630, 1632, 1633, 1633, 1634, 1635, 1635, 1635, 1636, 1639, 1641, 1643, 1645, 1650, 1652, 1655, 1657, 1662, 1663, 1666, 1668, 1672, 1674, 1676, 1676, 1679, 1680, 1681, 1682, 1682, 1682, 1682, 1682, 1682, 1682, 1682, 1682, 1682, 1682, 1682, 1682]","[1010, 1010, 1009, 1009, 1009, 1009, 1008, 1007, 1007, 1006, 1006, 1006, 1005, 1004, 1004, 1003, 1001, 995, 991, 985, 978, 953, 933, 903, 861, 772, 733, 696, 653, 578, 556, 526, 489, 416, 382, 352, 327, 287, 268, 258, 247, 231, 226, 221, 218, 213, 211, 210, 208, 204, 203, 203, 201, 197, 196, 193, 189, 180, 176, 172, 166, 156, 150, 142, 136, 126, 123, 117, 113, 106, 104, 100, 100, 95, 94, 93, 92, 90, 89, 89, 89, 89, 89, 89, 89, 89, 89, 89, 89]"
"Trust","Teilnehmer A hat Ihnen 2 Punkte übermittelt.","Payback","1","undefined","10","0","3","60","1080","181","5","1","1012","0","legacy","[11, 21, 31, 41, 51, 61, 71, 81, 91, 101, 111, 121, 131, 141, 151, 161, 171, 181, 191, 201, 211, 221, 231, 241, 251, 261, 271, 281, 291, 301, 311, 321, 331, 341, 351, 361, 371, 381, 391, 401, 411, 421, 431, 441, 451, 461, 471, 481, 491, 501, 511, 521, 531, 541, 551, 561, 571, 581, 591, 601, 611, 621, 631, 641, 651, 661, 671, 681, 691, 701, 711, 721, 731, 741, 751, 761, 771, 781, 791, 801, 811, 821, 831, 841, 851, 861, 871, 881, 891, 901, 911, 921, 931, 941, 951, 961, 971, 981, 991, 1001, 1011]","1081","1920","[960, 960, 960, 960, 960, 960, 960, 960, 960, 960, 960, 960, 961, 973, 979, 989, 1004, 1059, 1091, 1136, 1166, 1215, 1229, 1251, 1271, 1320, 1346, 1375, 1398, 1439, 1457, 1468, 1479, 1490, 1495, 1500, 1503, 1508, 1511, 1513, 1516, 1516, 1517, 1519, 1520, 1523, 1525, 1528, 1530, 1541, 1545, 1551, 1560, 1577, 1591, 1605, 1619, 1659, 1679, 1703, 1731, 1771, 1787, 1796, 1805, 1817, 1824, 1826, 1830, 1837, 1841, 1843, 1846, 1850, 1851, 1851, 1851, 1851, 1851, 1851, 1851, 1851, 1851, 1851, 1851, 1851, 1851, 1851, 1851, 1851, 1851, 1851, 1851, 1851, 1851, 1851, 1851, 1851, 1851, 1851, 1851]","[1010, 1010, 1010, 1010, 1010, 1010, 1010, 1010, 1010, 1010, 1010, 1010, 1010, 1003, 997, 988, 973, 925, 897, 858, 828, 779, 762, 733, 710, 625, 584, 547, 518, 474, 457, 447, 435, 414, 406, 398, 388, 374, 368, 363, 360, 354, 351, 349, 345, 340, 336, 332, 328, 314, 310, 303, 293, 280, 272, 263, 256, 236, 227, 214, 199, 178, 167, 161, 156, 145, 139, 135, 132, 125, 120, 119, 115, 111, 110, 109, 109, 108, 108, 108, 108, 108, 108, 108, 108, 108, 108, 108, 108, 108, 108, 108, 108, 108, 108, 108, 108, 108, 108, 108, 108]"
"Trust","Teilnehmer A hat Ihnen 2 Punkte übermittelt.","Payback","1","undefined","11","0","3","60","1080","161","5","1","893","0","legacy","[11, 21, 31, 41, 51, 61, 71, 81, 91, 101, 111, 121, 131, 141, 151, 161, 171, 181, 191, 201, 211, 221, 231, 241, 251, 261, 271, 281, 291, 301, 311, 321, 331, 341, 351, 361, 371, 381, 391, 401, 411, 421, 431, 441, 451, 461, 471, 481, 491, 501, 511, 521, 531, 541, 551, 561, 571, 581, 591, 601, 611, 621, 631, 641, 651, 661, 671, 681, 691, 701, 711, 721, 731, 741, 751, 761, 771, 781, 791, 801, 811, 821, 831, 841, 851, 861, 871, 881, 891]","1081","1920","[960, 960, 960, 960, 960, 960, 960, 961, 961, 961, 961, 965, 972, 993, 1009, 1027, 1055, 1113, 1143, 1174, 1213, 1290, 1326, 1366, 1405, 1489, 1523, 1561, 1592, 1635, 1659, 1676, 1689, 1703, 1709, 1713, 1718, 1727, 1730, 1732, 1734, 1737, 1738, 1738, 1739, 1739, 1739, 1739, 1739, 1739, 1739, 1741, 1744, 1748, 1750, 1753, 1755, 1759, 1763, 1764, 1764, 1766, 1766, 1766, 1766, 1762, 1762, 1761, 1760, 1759, 1759, 1758, 1758, 1758, 1758, 1758, 1758, 1758, 1758, 1758, 1758, 1758, 1758, 1758, 1758, 1758, 1758, 1758, 1758]","[1010, 1010, 1010, 1010, 1010, 1010, 1010, 1010, 1009, 1006, 999, 994, 986, 967, 950, 927, 895, 815, 773, 715, 657, 544, 491, 443, 398, 301, 256, 209, 172, 120, 99, 87, 75, 59, 52, 46, 39, 26, 23, 18, 14, 10, 9, 9, 8, 8, 8, 8, 8, 8, 8, 8, 11, 19, 24, 29, 32, 40, 44, 46, 48, 50, 50, 51, 51, 53, 53, 53, 53, 53, 54, 54, 54, 54, 54, 54, 54, 54, 54, 54, 54, 54, 54, 54, 54, 54, 54, 54, 54]"
"Promise","Wie oft werden Sie die Hälfte zurückgeben?","Promise","1","undefined","11","0","4","60","1080","211","5","1","863","0","legacy","[11, 21, 31, 41, 51, 61, 71, 81, 91, 101, 111, 121, 131, 141, 151, 161, 171, 181, 191, 201, 211, 221, 231, 241, 251, 261, 271, 281, 291, 301, 311, 321, 331, 341, 351, 361, 371, 381, 391, 401, 411, 421, 431, 441, 451, 461, 471, 481, 491, 501, 511, 521, 531, 541, 551, 561, 571, 581, 591, 601, 611, 621, 631, 641, 651, 661, 671, 681, 691, 701, 711, 721, 731, 741, 751, 761, 771, 781, 791, 801, 811, 821, 831, 841, 851, 861]","1081","1920","[960, 960, 960, 961, 961, 961, 961, 962, 962, 962, 962, 962, 962, 962, 962, 962, 963, 967, 974, 991, 1001, 1025, 1046, 1095, 1117, 1136, 1157, 1200, 1221, 1243, 1274, 1347, 1382, 1414, 1433, 1461, 1473, 1483, 1496, 1512, 1520, 1528, 1538, 1553, 1558, 1562, 1566, 1571, 1575, 1576, 1578, 1582, 1584, 1585, 1586, 1589, 1591, 1592, 1597, 1604, 1611, 1614, 1621, 1633, 1642, 1651, 1659, 1674, 1681, 1687, 1692, 1701, 1703, 1707, 1710, 1717, 1720, 1721, 1721, 1721, 1723, 1723, 1723, 1723, 1723, 1723]","[1010, 1010, 1010, 1010, 1010, 1010, 1010, 1009, 1007, 1005, 1003, 1001, 1000, 1000, 1000, 997, 993, 987, 979, 957, 938, 914, 892, 846, 820, 794, 769, 697, 657, 613, 561, 463, 426, 400, 388, 366, 353, 344, 332, 307, 297, 285, 274, 252, 246, 240, 235, 227, 221, 218, 215, 209, 208, 206, 205, 201, 200, 198, 195, 190, 185, 184, 179, 169, 165, 159, 155, 146, 141, 136, 132, 122, 119, 114, 109, 99, 94, 92, 90, 89, 87, 87, 87, 87, 87, 87]"
"Trust","Teilnehmer A hat Ihnen 2 Punkte übermittelt.","Payback","1","undefined","12","0","4","60","1080","191","5","1","741","0","legacy","[11, 21, 31, 41, 51, 61, 71, 81, 91, 101, 111, 121, 131, 141, 151, 161, 171, 181, 191, 201, 211, 221, 231, 241, 251, 261, 271, 281, 291, 301, 311, 321, 331, 341, 351, 361, 371, 381, 391, 401, 411, 421, 431, 441, 451, 461, 471, 481, 491, 501, 511, 521, 531, 541, 551, 561, 571, 581, 591, 601, 611, 621, 631, 641, 651, 661, 671, 681, 691, 701, 711, 721, 731, 741]","1081","1920","[960, 960, 960, 960, 960, 961, 961, 961, 962, 962, 963, 963, 963, 963, 963, 966, 971, 979, 1013, 1040, 1072, 1115, 1187, 1228, 1270, 1311, 1382, 1423, 1465, 1518, 1624, 1663, 1688, 1706, 1727, 1734, 1740, 1744, 1750, 1751, 1753, 1754, 1755, 1755, 1757, 1757, 1760, 1761, 1761, 1761, 1761, 1761, 1761, 1761, 1762, 1763, 1764, 1765, 1766, 1766, 1767, 1767, 1767, 1768, 1768, 1768, 1768, 1768, 1768, 1768, 1768, 1768, 1768, 1768]","[1010, 1010, 1010, 1010, 1010, 1010, 1010, 1010, 1010, 1010, 1010, 1008, 1004, 999, 991, 985, 976, 967, 926, 897, 867, 826, 748, 695, 641, 588, 498, 458, 423, 383, 309, 284, 267, 251, 230, 223, 212, 204, 188, 185, 180, 178, 173, 173, 171, 169, 164, 163, 162, 162, 162, 162, 162, 162, 159, 157, 154, 149, 143, 141, 138, 137, 133, 132, 132, 132, 132, 132, 131, 131, 131, 131, 131, 131]"
"Trust","Teilnehmer A hat Ihnen 2 Punkte übermittelt.","Payback","1","undefined","13","0","4","60","1080","191","5","1","733","0","legacy","[11, 21, 31, 41, 51, 61, 71, 81, 91, 101, 111, 121, 131, 141, 151, 161, 171, 181, 191, 201, 211, 221, 231, 241, 251, 261, 271, 281, 291, 301, 311, 321, 331, 341, 351, 361, 371, 381, 391, 401, 411, 421, 431, 441, 451, 461, 471, 481, 491, 501, 511, 521, 531, 541, 551, 561, 571, 581, 591, 601, 611, 621, 631, 641, 651, 661, 671, 681, 691, 701, 711, 721, 731]","1081","1920","[960, 960, 960, 960, 960, 960, 960, 960, 960, 960, 960, 960, 960, 962, 976, 983, 991, 999, 1028, 1054, 1083, 1116, 1192, 1232, 1272, 1313, 1387, 1425, 1460, 1482, 1524, 1545, 1562, 1581, 1613, 1621, 1631, 1638, 1648, 1653, 1657, 1662, 1670, 1673, 1679, 1681, 1690, 1696, 1701, 1706, 1712, 1716, 1720, 1723, 1727, 1729, 1729, 1731, 1732, 1733, 1733, 1734, 1735, 1736, 1736, 1736, 1737, 1737, 1737, 1737, 1737, 1738, 1738]","[1010, 1010, 1010, 1010, 1010, 1010, 1010, 1010, 1010, 1010, 1010, 1008, 1006, 1001, 989, 980, 970, 960, 923, 894, 865, 834, 769, 735, 699, 661, 581, 533, 485, 449, 395, 370, 345, 324, 285, 275, 261, 252, 234, 225, 217, 210, 198, 193, 185, 182, 169, 162, 157, 149, 142, 138, 132, 130, 123, 120, 117, 115, 111, 111, 110, 106, 105, 103, 103, 103, 101, 100, 100, 100, 100, 99, 99]"
"Trust","Teilnehmer A hat Ihnen 2 Punkte übermittelt.","Payback","1","undefined","14","0","4","60","1080","241","5","1","788","0","legacy","[11, 21, 31, 41, 51, 61, 71, 81, 91, 101, 111, 121, 131, 141, 151, 161, 171, 181, 191, 201, 211, 221, 231, 241, 251, 261, 271, 281, 291, 301, 311, 321, 331, 341, 351, 361, 371, 381, 391, 401, 411, 421, 431, 441, 451, 461, 471, 481, 491, 501, 511, 521, 531, 541, 551, 561, 571, 581, 591, 601, 611, 621, 631, 641, 651, 661, 671, 681, 691, 701, 711, 721, 731, 741, 751, 761, 771, 781]","1081","1920","[960, 960, 960, 960, 960, 960, 960, 960, 960, 960, 960, 960, 960, 960, 960, 960, 960, 960, 960, 960, 960, 979, 997, 1014, 1039, 1106, 1163, 1225, 1287, 1380, 1419, 1454, 1487, 1548, 1567, 1583, 1594, 1621, 1631, 1639, 1644, 1652, 1655, 1656, 1656, 1657, 1658, 1659, 1659, 1661, 1661, 1661, 1661, 1664, 1666, 1668, 1671, 1678, 1682, 1687, 1691, 1695, 1696, 1697, 1698, 1699, 1699, 1699, 1699, 1700, 1700, 1700, 1700, 1700, 1700, 1700, 1700, 1700]","[1010, 1010, 1010, 1010, 1010, 1010, 1010, 1010, 1010, 1010, 1010, 1010, 1010, 1010, 1010, 1010, 1010, 1009, 1007, 1004, 999, 972, 949, 928, 902, 825, 772, 717, 661, 587, 557, 524, 490, 423, 397, 365, 341, 290, 272, 256, 243, 223, 216, 210, 206, 200, 199, 196, 193, 190, 189, 188, 186, 182, 178, 176, 171, 162, 157, 152, 147, 141, 139, 137, 135, 133, 132, 132, 131, 130, 130, 129, 129, 128, 128, 128, 128, 128]"
"Promise","Wie oft werden Sie die Hälfte zurückgeben?","Promise","1","undefined","14","0","5","60","1080","181","5","1","792","0","legacy","[11, 21, 31, 41, 51, 61, 71, 81, 91, 101, 111, 121, 131, 141, 151, 161, 171, 181, 191, 201, 211, 221, 231, 241, 251, 261, 271, 281, 291, 301, 311, 321, 331, 341, 351, 361, 371, 381, 391, 401, 411, 421, 431, 441, 451, 461, 471, 481, 491, 501, 511, 521, 531, 541, 551, 561, 571, 581, 591, 601, 611, 621, 631, 641, 651, 661, 671, 681, 691, 701, 711, 721, 731, 741, 751, 761, 771, 781, 791]","1081","1920","[960, 960, 960, 960, 960, 960, 960, 960, 960, 960, 960, 963, 966, 970, 975, 988, 998, 1013, 1029, 1079, 1107, 1127, 1151, 1215, 1255, 1308, 1367, 1490, 1537, 1578, 1620, 1688, 1707, 1726, 1738, 1759, 1766, 1772, 1776, 1782, 1785, 1786, 1787, 1788, 1789, 1789, 1790, 1790, 1790, 1792, 1792, 1792, 1793, 1793, 1794, 1794, 1794, 1794, 1794, 1794, 1794, 1794, 1796, 1796, 1796, 1796, 1796, 1796, 1796, 1796, 1796, 1796, 1796, 1796, 1796, 1796, 1796, 1796, 1796]","[1010, 1010, 1010, 1010, 1010, 1010, 1010, 1010, 1010, 1010, 1010, 1002, 997, 991, 983, 963, 946, 923, 898, 824, 785, 746, 703, 624, 588, 550, 495, 405, 374, 347, 319, 280, 267, 256, 250, 234, 227, 220, 215, 205, 202, 199, 196, 194, 192, 190, 190, 186, 185, 183, 181, 178, 174, 171, 168, 160, 156, 155, 152, 147, 144, 141, 138, 134, 131, 130, 129, 126, 125, 123, 123, 122, 122, 122, 120, 120, 119, 119, 119]"
"Trust","Teilnehmer A hat Ihnen 2 Punkte übermittelt.","Payback","1","undefined","15","0","5","60","1080","191","5","1","797","0","legacy","[11, 21, 31, 41, 51, 61, 71, 81, 91, 101, 111, 121, 131, 141, 151, 161, 171, 181, 191, 201, 211, 221, 231, 241, 251, 261, 271, 281, 291, 301, 311, 321, 331, 341, 351, 361, 371, 381, 391, 401, 411, 421, 431, 441, 451, 461, 471, 481, 491, 501, 511, 521, 531, 541, 551, 561, 571, 581, 591, 601, 611, 621, 631, 641, 651, 661, 671, 681, 691, 701, 711, 721, 731, 741, 751, 761, 771, 781, 791]","1081","1920","[961, 961, 962, 962, 963, 963, 964, 965, 966, 967, 974, 979, 982, 987, 1001, 1011, 1020, 1034, 1058, 1070, 1089, 1104, 1145, 1173, 1213, 1251, 1312, 1330, 1351, 1370, 1410, 1431, 1459, 1480, 1515, 1527, 1535, 1544, 1557, 1565, 1575, 1581, 1593, 1597, 1603, 1609, 1621, 1629, 1634, 1640, 1648, 1649, 1652, 1656, 1665, 1669, 1673, 1677, 1686, 1688, 1690, 1692, 1694, 1695, 1696, 1697, 1697, 1697, 1698, 1698, 1698, 1698, 1699, 1699, 1699, 1699, 1700, 1700, 1700]","[1010, 1010, 1011, 1011, 1011, 1011, 1011, 1011, 1011, 1011, 1008, 1003, 996, 990, 978, 971, 962, 949, 908, 877, 836, 819, 767, 748, 718, 693, 642, 619, 591, 556, 454, 403, 359, 321, 280, 269, 262, 254, 240, 233, 225, 219, 211, 209, 204, 199, 190, 183, 178, 175, 170, 169, 166, 164, 161, 157, 155, 151, 145, 142, 140, 139, 137, 133, 133, 132, 130, 129, 128, 128, 127, 127, 126, 126, 126, 126, 125, 125, 125]"
"NoTrust","Teilnehmer A hat Ihnen keine 2 Punkte übermittelt.","Payback","1","undefined","16","0","5","60","1080","191","0","1","797","0","legacy","[11, 21, 31, 41, 51, 61, 71, 81, 91, 101, 111, 121, 131, 141, 151, 161, 171, 181, 191, 201, 211, 221, 231, 241, 251, 261, 271, 281, 291, 301, 311, 321, 331, 341, 351, 361, 371, 381, 391, 401, 411, 421, 431, 441, 451, 461, 471, 481, 491, 501, 511, 521, 531, 541, 551, 561, 571, 581, 591, 601, 611, 621, 631, 641, 651, 661, 671, 681, 691, 701, 711, 721, 731, 741, 751, 761, 771, 781, 791]","1081","1920","[961, 961, 962, 962, 963, 963, 964, 965, 966, 967, 974, 979, 982, 987, 1001, 1011, 1020, 1034, 1058, 1070, 1089, 1104, 1145, 1173, 1213, 1251, 1312, 1330, 1351, 1370, 1410, 1431, 1459, 1480, 1515, 1527, 1535, 1544, 1557, 1565, 1575, 1581, 1593, 1597, 1603, 1609, 1621, 1629, 1634, 1640, 1648, 1649, 1652, 1656, 1665, 1669, 1673, 1677, 1686, 1688, 1690, 1692, 1694, 1695, 1696, 1697, 1697, 1697, 1698, 1698, 1698, 1698, 1699, 1699, 1699, 1699, 1700, 1700, 1700]","[1010, 1010, 1011, 1011, 1011, 1011, 1011, 1011, 1011, 1011, 1008, 1003, 996, 990, 978, 971, 962, 949, 908, 877, 836, 819, 767, 748, 718, 693, 642, 619, 591, 556, 454, 403, 359, 321, 280, 269, 262, 254, 240, 233, 225, 219, 211, 209, 204, 199, 190, 183, 178, 175, 170, 169, 166, 164, 161, 157, 155, 151, 145, 142, 140, 139, 137, 133, 133, 132, 130, 129, 128, 128, 127, 127, 126, 126, 126, 126, 125, 125, 125]"
"Trust","Teilnehmer A hat Ihnen 2 Punkte übermittelt.","Payback","1","undefined","17","0","5","60","1080","221","5","1","868","0","legacy","[11, 21, 31, 41, 51, 61, 71, 81, 91, 101, 111, 121, 131, 141, 151, 161, 171, 181, 191, 201, 211, 221, 231, 241, 251, 261, 271, 281, 291, 301, 311, 321, 331, 341, 351, 361, 371, 381, 391, 401, 411, 421, 431, 441, 451, 461, 471, 481, 491, 501, 511, 521, 531, 541, 551, 561, 571, 581, 591, 601, 611, 621, 631, 641, 651, 661, 671, 681, 691, 701, 711, 721, 731, 741, 751, 761, 771, 781, 791, 801, 811, 821, 831, 841, 851, 861]","1081","1920","[960, 960, 960, 960, 960, 960, 960, 960, 960, 960, 960, 960, 960, 961, 963, 967, 973, 986, 993, 1004, 1014, 1061, 1088, 1118, 1143, 1215, 1249, 1286, 1328, 1420, 1461, 1498, 1527, 1573, 1586, 1597, 1605, 1620, 1627, 1638, 1644, 1660, 1667, 1672, 1678, 1686, 1689, 1694, 1695, 1698, 1698, 1699, 1701, 1703, 1706, 1706, 1711, 1717, 1718, 1721, 1722, 1724, 1726, 1726, 1726, 1726, 1726, 1727, 1727, 1727, 1727, 1727, 1728, 1728, 1728, 1728, 1729, 1729, 1729, 1729, 1729, 1729, 1729, 1729, 1730, 1730]","[1010, 1010, 1010, 1010, 1010, 1010, 1010, 1010, 1010, 1010, 1010, 1010, 1010, 1008, 1007, 1003, 1000, 992, 987, 978, 967, 925, 898, 866, 830, 768, 735, 704, 661, 566, 528, 496, 471, 431, 418, 403, 392, 369, 356, 341, 331, 310, 299, 292, 283, 268, 262, 255, 250, 239, 236, 232, 229, 220, 214, 211, 202, 189, 181, 173, 166, 155, 150, 146, 142, 135, 133, 129, 128, 123, 121, 119, 118, 116, 114, 113, 112, 110, 110, 109, 109, 109, 109, 109, 109, 109]"
"Promise","Wie oft werden Sie die Hälfte zurückgeben?","Promise","1","undefined","17","0","6","60","1080","141","5","1","720","0","legacy","[11, 21, 31, 41, 51, 61, 71, 81, 91, 101, 111, 121, 131, 141, 151, 161, 171, 181, 191, 201, 211, 221, 231, 241, 251, 261, 271, 281, 291, 301, 311, 321, 331, 341, 351, 361, 371, 381, 391, 401, 411, 421, 431, 441, 451, 461, 471, 481, 491, 501, 511, 521, 531, 541, 551, 561, 571, 581, 591, 601, 611, 621, 631, 641, 651, 661, 671, 681, 691, 701, 711]","1081","1920","[960, 960, 960, 960, 960, 961, 963, 965, 966, 966, 971, 988, 1003, 1018, 1041, 1095, 1135, 1162, 1194, 1243, 1268, 1302, 1332, 1377, 1402, 1424, 1444, 1479, 1491, 1503, 1515, 1535, 1544, 1554, 1563, 1581, 1588, 1593, 1597, 1609, 1615, 1620, 1627, 1640, 1646, 1653, 1658, 1664, 1668, 1672, 1675, 1686, 1692, 1698, 1704, 1715, 1720, 1724, 1729, 1736, 1737, 1739, 1740, 1742, 1743, 1744, 1744, 1745, 1745, 1745, 1746]","[1010, 1010, 1010, 1010, 1010, 1010, 1009, 1003, 1000, 996, 988, 971, 955, 937, 911, 853, 821, 796, 766, 713, 686, 647, 602, 543, 514, 486, 462, 414, 392, 373, 354, 323, 313, 303, 292, 276, 271, 265, 260, 246, 240, 232, 226, 211, 204, 195, 189, 178, 175, 171, 167, 158, 153, 148, 143, 132, 127, 123, 117, 109, 108, 103, 102, 97, 96, 94, 92, 89, 89, 89, 89]"
"Trust","Teilnehmer A hat Ihnen 2 Punkte übermittelt.","Payback","1","undefined","18","0","6","60","1080","191","5","1","1037","0","legacy","[11, 21, 31, 41, 51, 61, 71, 81, 91, 101, 111, 121, 131, 141, 151, 161, 171, 181, 191, 201, 211, 221, 231, 241, 251, 261, 271, 281, 291, 301, 311, 321, 331, 341, 351, 361, 371, 381, 391, 401, 411, 421, 431, 441, 451, 461, 471, 481, 491, 501, 511, 521, 531, 541, 551, 561, 571, 581, 591, 601, 611, 621, 631, 641, 651, 661, 671, 681, 691, 701, 711, 721, 731, 741, 751, 761, 771, 781, 791, 801, 811, 821, 831, 841, 851, 861, 871, 881, 891, 901, 911, 921, 931, 941, 951, 961, 971, 981, 991, 1001, 1011, 1021, 1031]","1081","1920","[960, 960, 960, 960, 960, 960, 960, 960, 961, 963, 965, 967, 967, 971, 981, 987, 994, 1001, 1021, 1035, 1051, 1068, 1102, 1115, 1134, 1150, 1187, 1205, 1220, 1237, 1276, 1293, 1309, 1317, 1333, 1340, 1349, 1357, 1374, 1379, 1386, 1391, 1403, 1410, 1416, 1425, 1445, 1455, 1464, 1473, 1488, 1494, 1501, 1505, 1516, 1524, 1531, 1540, 1563, 1576, 1592, 1609, 1653, 1669, 1688, 1702, 1722, 1726, 1729, 1732, 1735, 1737, 1737, 1737, 1739, 1740, 1742, 1744, 1747, 1749, 1750, 1752, 1754, 1754, 1756, 1756, 1756, 1756, 1756, 1757, 1757, 1758, 1758, 1758, 1758, 1758, 1758, 1758, 1758, 1758, 1758, 1758, 1758]","[1010, 1010, 1011, 1011, 1011, 1011, 1011, 1011, 1011, 1008, 1004, 1000, 997, 992, 980, 971, 961, 949, 916, 896, 871, 853, 807, 790, 762, 732, 665, 632, 605, 577, 521, 491, 464, 446, 418, 405, 394, 385, 363, 355, 348, 343, 331, 325, 318, 309, 291, 279, 271, 260, 245, 241, 236, 233, 226, 223, 219, 215, 209, 204, 200, 195, 183, 181, 175, 173, 169, 168, 166, 165, 164, 162, 162, 162, 162, 161, 160, 159, 157, 156, 155, 153, 151, 151, 148, 148, 146, 144, 144, 143, 139, 138, 135, 134, 131, 129, 127, 127, 123, 122, 122, 121, 121]"
"Trust","Teilnehmer A hat Ihnen 2 Punkte übermittelt.","Payback","1","undefined","19","0","6","60","1080","201","5","1","791","0","legacy","[11, 21, 31, 41, 51, 61, 71, 81, 91, 101, 111, 121, 131, 141, 151, 161, 171, 181, 191, 201, 211, 221, 231, 241, 251, 261, 271, 281, 291, 301, 311, 321, 331, 341, 351, 361, 371, 381, 391, 401, 411, 421, 431, 441, 451, 461, 471, 481, 491, 501, 511, 521, 531, 541, 551, 561, 571, 581, 591, 601, 611, 621, 631, 641, 651, 661, 671, 681, 691, 701, 711, 721, 731, 741, 751, 761, 771, 781, 791]","1081","1920","[960, 960, 961, 961, 961, 961, 961, 963, 963, 965, 966, 968, 969, 972, 974, 976, 979, 986, 996, 1029, 1053, 1074, 1099, 1141, 1166, 1189, 1215, 1269, 1296, 1326, 1352, 1416, 1440, 1455, 1469, 1496, 1511, 1522, 1542, 1566, 1577, 1585, 1590, 1604, 1610, 1614, 1621, 1627, 1631, 1633, 1635, 1636, 1636, 1637, 1637, 1637, 1638, 1639, 1643, 1656, 1663, 1675, 1685, 1704, 1712, 1719, 1721, 1722, 1722, 1722, 1722, 1722, 1722, 1722, 1722, 1722, 1723, 1723, 1724]","[1010, 1010, 1010, 1010, 1010, 1010, 1010, 1010, 1009, 1007, 1005, 1002, 1000, 998, 994, 981, 973, 961, 948, 890, 847, 811, 773, 704, 668, 632, 600, 535, 501, 466, 437, 353, 322, 302, 275, 229, 208, 192, 171, 141, 126, 115, 106, 90, 82, 76, 66, 54, 47, 45, 42, 39, 39, 39, 39, 39, 39, 39, 40, 52, 58, 66, 72, 82, 86, 90, 93, 93, 93, 93, 93, 93, 93, 93, 93, 93, 93, 93, 93]"
"Trust","Teilnehmer A hat Ihnen 2 Punkte übermittelt.","Payback","1","undefined","20","0","6","60","1080","231","5","1","726","0","legacy","[11, 21, 31, 41, 51, 61, 71, 81, 91, 101, 111, 121, 131, 141, 151, 161, 171, 181, 191, 201, 211, 221, 231, 241, 251, 261, 271, 281, 291, 301, 311, 321, 331, 341, 351, 361, 371, 381, 391, 401, 411, 421, 431, 441, 451, 461, 471, 481, 491, 501, 511, 521, 531, 541, 551, 561, 571, 581, 591, 601, 611, 621, 631, 641, 651, 661, 671, 681, 691, 701, 711, 721]","1081","1920","[960, 960, 960, 960, 960, 960, 960, 960, 960, 960, 960, 960, 960, 960, 960, 961, 963, 965, 977, 985, 1001, 1024, 1106, 1148, 1196, 1237, 1340, 1389, 1435, 1481, 1563, 1595, 1619, 1637, 1680, 1705, 1724, 1741, 1761, 1773, 1782, 1791, 1806, 1810, 1813, 1816, 1818, 1820, 1820, 1819, 1811, 1808, 1803, 1798, 1788, 1782, 1777, 1774, 1765, 1761, 1759, 1757, 1753, 1751, 1750, 1749, 1748, 1748, 1748, 1748, 1748, 1748]","[1010, 1010, 1010, 1010, 1010, 1010, 1010, 1010, 1010, 1010, 1010, 1010, 1010, 1010, 1010, 1008, 1005, 1001, 988, 981, 964, 946, 885, 848, 806, 765, 662, 613, 570, 528, 458, 430, 405, 382, 330, 306, 285, 267, 246, 233, 221, 213, 196, 189, 180, 175, 165, 160, 157, 152, 133, 126, 121, 115, 103, 96, 91, 87, 78, 76, 73, 72, 70, 69, 68, 68, 68, 68, 68, 68, 68, 68]"
"Promise","Wie oft werden Sie die Hälfte zurückgeben?","Promise","1","undefined","20","0","7","60","1080","231","5","1","936","0","legacy","[11, 21, 31, 41, 51, 61, 71, 81, 91, 101, 111, 121, 131, 141, 151, 161, 171, 181, 191, 201, 211, 221, 231, 241, 251, 261, 271, 281, 291, 301, 311, 321, 331, 341, 351, 361, 371, 381, 391, 401, 411, 421, 431, 441, 451, 461, 471, 481, 491, 501, 511, 521, 531, 541, 551, 561, 571, 581, 591, 601, 611, 621, 631, 641, 651, 661, 671, 681, 691, 701, 711, 721, 731, 741, 751, 761, 771, 781, 791, 801, 811, 821, 831, 841, 851, 861, 871, 881, 891, 901, 911, 921, 931]","1081","1920","[961, 961, 961, 961, 961, 961, 961, 961, 961, 961, 961, 962, 963, 963, 964, 966, 968, 971, 974, 981, 987, 994, 1004, 1027, 1041, 1058, 1076, 1125, 1155, 1190, 1226, 1302, 1350, 1389, 1429, 1464, 1479, 1494, 1504, 1538, 1551, 1570, 1580, 1598, 1604, 1610, 1614, 1619, 1622, 1623, 1626, 1630, 1633, 1634, 1635, 1636, 1636, 1636, 1636, 1640, 1644, 1649, 1654, 1666, 1672, 1677, 1681, 1687, 1687, 1688, 1688, 1688, 1688, 1688, 1688, 1688, 1688, 1688, 1688, 1688, 1688, 1688, 1688, 1688, 1688, 1688, 1688, 1688, 1688, 1688, 1688, 1688, 1688]","[1010, 1010, 1010, 1010, 1010, 1010, 1010, 1010, 1010, 1010, 1010, 1010, 1010, 1009, 1007, 1003, 1000, 997, 992, 978, 967, 952, 933, 891, 864, 836, 804, 721, 680, 629, 579, 471, 415, 349, 303, 244, 219, 194, 175, 130, 117, 100, 92, 76, 71, 66, 62, 56, 53, 51, 49, 46, 45, 44, 44, 44, 44, 44, 44, 44, 46, 48, 52, 60, 64, 68, 70, 73, 73, 73, 73, 73, 73, 73, 73, 73, 73, 73, 73, 75, 75, 75, 75, 75, 75, 75, 75, 75, 75, 75, 75, 75, 75]"
"Trust","Teilnehmer A hat Ihnen 2 Punkte übermittelt.","Payback","1","undefined","21","0","7","60","1080","211","5","1","1134","0","legacy","[11, 21, 31, 41, 51, 61, 71, 81, 91, 101, 111, 121, 131, 141, 151, 161, 171, 181, 191, 201, 211, 221, 231, 241, 251, 261, 271, 281, 291, 301, 311, 321, 331, 341, 351, 361, 371, 381, 391, 401, 411, 421, 431, 441, 451, 461, 471, 481, 491, 501, 511, 521, 531, 541, 551, 561, 571, 581, 591, 601, 611, 621, 631, 641, 651, 661, 671, 681, 691, 701, 711, 721, 731, 741, 751, 761, 771, 781, 791, 801, 811, 821, 831, 841, 851, 861, 871, 881, 891, 901, 911, 921, 931, 941, 951, 961, 971, 981, 991, 1001, 1011, 1021, 1031, 1041, 1051, 1061, 1071, 1081, 1091, 1101, 1111, 1121, 1131]","1081","1920","[960, 960, 960, 960, 960, 960, 960, 960, 960, 960, 960, 960, 960, 960, 966, 972, 977, 983, 997, 1006, 1019, 1037, 1075, 1101, 1131, 1163, 1217, 1244, 1265, 1293, 1336, 1352, 1363, 1377, 1398, 1412, 1421, 1432, 1449, 1456, 1464, 1470, 1483, 1493, 1502, 1510, 1531, 1538, 1547, 1553, 1563, 1566, 1572, 1576, 1586, 1592, 1597, 1604, 1620, 1630, 1640, 1649, 1668, 1675, 1684, 1689, 1699, 1703, 1707, 1710, 1714, 1715, 1718, 1718, 1720, 1721, 1723, 1723, 1724, 1724, 1725, 1726, 1726, 1726, 1726, 1726, 1726, 1726, 1726, 1726, 1726, 1726, 1726, 1726, 1726, 1726, 1727, 1727, 1727, 1727, 1727, 1727, 1727, 1727, 1727, 1727, 1727, 1727, 1727, 1727, 1727, 1727, 1727]","[1010, 1010, 1010, 1010, 1010, 1010, 1010, 1010, 1010, 1010, 1010, 1010, 1009, 1006, 998, 992, 984, 975, 955, 941, 924, 904, 848, 816, 774, 735, 657, 620, 592, 553, 492, 469, 455, 435, 406, 391, 379, 368, 350, 343, 337, 331, 320, 314, 308, 301, 289, 285, 279, 275, 269, 267, 263, 260, 252, 248, 245, 241, 232, 227, 221, 216, 202, 196, 188, 182, 169, 164, 159, 157, 148, 145, 142, 140, 135, 132, 130, 129, 126, 122, 121, 120, 119, 118, 118, 117, 116, 115, 115, 115, 115, 115, 115, 115, 114, 113, 112, 112, 112, 112, 112, 112, 112, 112, 112, 112, 112, 112, 112, 112, 112, 112, 112]"
"Trust","Teilnehmer A hat Ihnen 2 Punkte übermittelt.","Payback","1","undefined","22","0","7","60","1080","251","5","1","1007","0","legacy","[11, 21, 31, 41, 51, 61, 71, 81, 91, 101, 111, 121, 131, 141, 151, 161, 171, 181, 191, 201, 211, 221, 231, 241, 251, 261, 271, 281, 291, 301, 311, 321, 331, 341, 351, 361, 371, 381, 391, 401, 411, 421, 431, 441, 451, 461, 471, 481, 491, 501, 511, 521, 531, 541, 551, 561, 571, 581, 591, 601, 611, 621, 631, 641, 651, 661, 671, 681, 691, 701, 711, 721, 731, 741, 751, 761, 771, 781, 791, 801, 811, 821, 831, 841, 851, 861, 871, 881, 891, 901, 911, 921, 931, 941, 951, 961, 971, 981, 991, 1001]","1081","1920","[960, 960, 960, 960, 960, 960, 960, 960, 960, 960, 960, 960, 960, 960, 960, 963, 965, 965, 968, 974, 979, 985, 997, 1021, 1037, 1058, 1083, 1127, 1151, 1173, 1199, 1239, 1267, 1290, 1320, 1364, 1383, 1402, 1420, 1451, 1461, 1469, 1474, 1477, 1477, 1477, 1477, 1477, 1478, 1478, 1480, 1483, 1486, 1487, 1490, 1491, 1492, 1492, 1493, 1493, 1495, 1497, 1502, 1521, 1529, 1543, 1558, 1600, 1621, 1638, 1664, 1672, 1677, 1683, 1686, 1696, 1700, 1702, 1707, 1708, 1710, 1711, 1712, 1712, 1712, 1712, 1712, 1712, 1712, 1712, 1712, 1712, 1712, 1712, 1712, 1712, 1712, 1712, 1712, 1712]","[1010, 1010, 1010, 1010, 1010, 1010, 1010, 1010, 1010, 1010, 1010, 1005, 1004, 1003, 1001, 998, 996, 995, 992, 985, 980, 973, 964, 943, 927, 905, 876, 824, 788, 758, 716, 660, 628, 600, 560, 503, 478, 459, 441, 413, 405, 398, 394, 391, 391, 391, 391, 391, 389, 388, 385, 377, 373, 369, 364, 363, 361, 360, 359, 359, 359, 359, 356, 345, 339, 329, 317, 281, 259, 241, 211, 199, 190, 179, 169, 149, 137, 126, 108, 104, 99, 96, 93, 91, 89, 88, 84, 82, 82, 81, 81, 81, 80, 80, 80, 79, 79, 79, 79, 79]"
"Trust","Teilnehmer A hat Ihnen 2 Punkte übermittelt.","Payback","1","undefined","23","0","7","60","1080","311","5","1","1678","0","legacy","[11, 21, 31, 41, 51, 61, 71, 81, 91, 101, 111, 121, 131, 141, 151, 161, 171, 181, 191, 201, 211, 221, 231, 241, 251, 261, 271, 281, 291, 301, 311, 321, 331, 341, 351, 361, 371, 381, 391, 401, 411, 421, 431, 441, 451, 461, 471, 481, 491, 501, 511, 521, 531, 541, 551, 561, 571, 581, 591, 601, 611, 621, 631, 641, 651, 661, 671, 681, 691, 701, 711, 721, 731, 741, 751, 761, 771, 781, 791, 801, 811, 821, 831, 841, 851, 861, 871, 881, 891, 901, 911, 921, 931, 941, 951, 961, 971, 981, 991, 1001, 1011, 1021, 1031, 1041, 1051, 1061, 1071, 1081, 1091, 1101, 1111, 1121, 1131, 1141, 1151, 1161, 1171, 1181, 1191, 1201, 1211, 1221, 1231, 1241, 1251, 1261, 1271, 1281, 1291, 1301, 1311, 1321, 1331, 1341, 1351, 1361, 1371, 1381, 1391, 1401, 1411, 1421, 1431, 1441, 1451, 1461, 1471, 1481, 1491, 1501, 1511, 1521, 1531, 1541, 1551, 1561, 1571, 1581, 1591, 1601, 1611, 1621, 1631, 1641, 1651, 1661, 1671]","1081","1920","[960, 960, 960, 960, 960, 960, 960, 960, 960, 960, 960, 960, 960, 960, 960, 960, 959, 959, 959, 959, 959, 959, 960, 961, 962, 963, 965, 966, 969, 969, 971, 974, 975, 975, 975, 976, 976, 976, 976, 976, 976, 976, 976, 976, 976, 976, 976, 976, 976, 976, 974, 973, 968, 963, 953, 948, 942, 935, 922, 915, 906, 897, 875, 865, 852, 843, 835, 833, 825, 818, 805, 796, 785, 775, 753, 743, 733, 724, 709, 702, 698, 696, 694, 694, 694, 694, 694, 694, 694, 694, 694, 694, 694, 694, 694, 694, 694, 694, 698, 705, 714, 726, 758, 781, 811, 851, 939, 992, 1045, 1095, 1187, 1235, 1270, 1299, 1350, 1375, 1396, 1420, 1466, 1487, 1503, 1515, 1536, 1545, 1551, 1559, 1573, 1579, 1585, 1591, 1604, 1609, 1613, 1617, 1626, 1629, 1632, 1636, 1643, 1647, 1654, 1659, 1673, 1680, 1687, 1694, 1707, 1711, 1715, 1719, 1725, 1728, 1733, 1735, 1743, 1745, 1749, 1751, 1755, 1756, 1757, 1757, 1757, 1758, 1758, 1759, 1759]","[1010, 1009, 1009, 1009, 1009, 1009, 1009, 1009, 1009, 1007, 1004, 1002, 1000, 1000, 997, 996, 994, 994, 993, 991, 990, 989, 982, 980, 976, 974, 966, 960, 953, 945, 924, 914, 902, 891, 864, 852, 835, 823, 795, 782, 766, 751, 713, 696, 680, 667, 644, 636, 628, 622, 607, 601, 594, 586, 569, 561, 555, 547, 535, 530, 525, 520, 510, 506, 500, 497, 490, 488, 480, 474, 461, 453, 445, 436, 421, 414, 407, 401, 389, 385, 381, 380, 379, 379, 379, 379, 379, 379, 379, 379, 379, 379, 379, 379, 379, 379, 379, 379, 376, 375, 372, 370, 366, 363, 358, 354, 329, 315, 299, 285, 265, 251, 242, 239, 231, 225, 222, 218, 209, 205, 202, 201, 201, 201, 201, 201, 199, 197, 196, 193, 192, 191, 189, 189, 188, 187, 185, 184, 181, 179, 175, 173, 162, 156, 148, 142, 130, 126, 121, 115, 107, 103, 98, 96, 88, 86, 81, 79, 75, 74, 72, 72, 71, 70, 70, 70, 70]"
CHF,TotCHF,final_payoff,sum
"10","30","[5, 5, 5, 5]","20"
