Condition,PromiseStage,Stage,accuracy,avg_rt,count_decision_sequence,count_loop1,count_trial_sequence,font_size,height,init_time,payoff,response,rt,subject_nr,synth_backend,tTrajectory,time_experiment,width,xTrajectory,yTrajectory
"Promise","Wie oft werden Sie die Hälfte zurückgeben?","Promise","1","undefined","NA","0","0","60","1080","391","NA","1","2526","0","legacy","[11, 21, 31, 41, 51, 61, 71, 81, 91, 101, 111, 121, 131, 141, 151, 161, 171, 181, 191, 201, 211, 221, 231, 241, 251, 261, 271, 281, 291, 301, 311, 321, 331, 341, 351, 361, 371, 381, 391, 401, 411, 421, 431, 441, 451, 461, 471, 481, 491, 501, 511, 521, 531, 541, 551, 561, 571, 581, 591, 601, 611, 621, 631, 641, 651, 661, 671, 681, 691, 701, 711, 721, 731, 741, 751, 761, 771, 781, 791, 801, 811, 821, 831, 841, 851, 861, 871, 881, 891, 901, 911, 921, 931, 941, 951, 961, 971, 981, 991, 1001, 1011, 1021, 1031, 1041, 1051, 1061, 1071, 1081, 1091, 1101, 1111, 1121, 1131, 1141, 1151, 1161, 1171, 1181, 1191, 1201, 1211, 1221, 1231, 1241, 1251, 1261, 1271, 1281, 1291, 1301, 1311, 1321, 1331, 1341, 1351, 1361, 1371, 1381, 1391, 1401, 1411, 1421, 1431, 1441, 1451, 1461, 1471, 1481, 1491, 1501, 1511, 1521, 1531, 1541, 1551, 1561, 1571, 1581, 1591, 1601, 1611, 1621, 1631, 1641, 1651, 1661, 1671, 1681, 1691, 1701, 1711, 1721, 1731, 1741, 1751, 1761, 1771, 1781, 1791, 1801, 1811, 1821, 1831, 1841, 1851, 1861, 1871, 1881, 1891, 1901, 1911, 1921, 1931, 1941, 1951, 1961, 1971, 1981, 1991, 2001, 2011, 2021, 2031, 2041, 2051, 2061, 2071, 2081, 2091, 2101, 2111, 2121, 2131, 2141, 2151, 2161, 2171, 2181, 2191, 2201, 2211, 2221, 2231, 2241, 2251, 2261, 2271, 2281, 2291, 2301, 2311, 2321, 2331, 2341, 2351, 2361, 2371, 2381, 2391, 2401, 2411, 2421, 2431, 2441, 2451, 2461, 2471, 2481, 2491, 2501, 2511, 2521]","1126","1920","[960, 960, 960, 960, 960, 960, 960, 960, 960, 960, 960, 960, 960, 960, 960, 960, 960, 960, 960, 960, 960, 959, 958, 957, 956, 955, 954, 954, 953, 953, 951, 949, 947, 943, 933, 928, 922, 919, 908, 904, 899, 895, 887, 883, 878, 874, 867, 864, 862, 858, 851, 849, 844, 840, 834, 832, 829, 827, 822, 819, 818, 816, 813, 811, 809, 808, 805, 802, 801, 799, 797, 796, 795, 794, 792, 792, 791, 790, 788, 787, 787, 786, 785, 784, 783, 782, 781, 781, 780, 780, 779, 778, 777, 777, 775, 774, 774, 774, 773, 772, 772, 772, 771, 771, 771, 771, 770, 769, 768, 768, 767, 767, 766, 766, 765, 764, 764, 764, 764, 764, 763, 763, 762, 762, 761, 761, 760, 759, 759, 758, 757, 755, 754, 753, 751, 749, 747, 746, 740, 737, 735, 733, 729, 727, 722, 719, 711, 707, 703, 697, 687, 682, 676, 671, 660, 656, 649, 645, 633, 630, 624, 618, 608, 603, 601, 596, 587, 583, 578, 575, 565, 558, 553, 550, 542, 538, 534, 529, 520, 517, 512, 510, 503, 501, 499, 497, 492, 490, 489, 486, 480, 477, 475, 471, 466, 463, 457, 454, 445, 441, 433, 427, 409, 400, 391, 385, 367, 357, 348, 338, 323, 318, 312, 310, 307, 305, 304, 303, 301, 300, 298, 297, 294, 291, 287, 283, 279, 276, 272, 270, 263, 261, 258, 256, 251, 250, 248, 246, 242, 240, 239, 236, 235, 234, 234, 233, 233, 231, 231, 231, 231, 231]","[1010, 1010, 1010, 1010, 1010, 1010, 1010, 1010, 1010, 1010, 1010, 1010, 1010, 1010, 1010, 1010, 1010, 1010, 1009, 1009, 1009, 1007, 1006, 1004, 1003, 1002, 1000, 1000, 999, 998, 996, 992, 989, 983, 968, 958, 948, 940, 921, 913, 905, 898, 883, 874, 866, 858, 847, 842, 838, 833, 823, 820, 813, 809, 800, 795, 791, 787, 778, 773, 772, 769, 763, 760, 758, 756, 751, 749, 747, 744, 742, 740, 738, 737, 735, 734, 733, 732, 730, 728, 728, 727, 725, 724, 722, 721, 720, 720, 718, 718, 717, 715, 714, 713, 712, 711, 710, 710, 709, 709, 709, 708, 707, 707, 706, 706, 705, 704, 703, 702, 701, 701, 700, 700, 698, 698, 696, 696, 696, 696, 695, 695, 694, 693, 692, 692, 688, 688, 687, 685, 682, 679, 678, 675, 668, 666, 662, 658, 649, 645, 641, 637, 630, 627, 619, 615, 601, 594, 586, 579, 562, 556, 547, 541, 525, 519, 511, 504, 490, 484, 477, 471, 460, 455, 452, 447, 438, 435, 431, 427, 418, 413, 408, 404, 398, 394, 391, 387, 380, 376, 373, 371, 363, 362, 360, 358, 353, 352, 350, 347, 341, 338, 334, 329, 323, 321, 314, 311, 300, 295, 286, 281, 266, 258, 250, 244, 230, 222, 210, 201, 185, 178, 171, 168, 162, 160, 159, 156, 154, 153, 150, 149, 145, 143, 141, 137, 132, 129, 127, 126, 122, 120, 118, 116, 113, 112, 111, 110, 108, 106, 106, 103, 103, 103, 102, 102, 102, 101, 100, 100, 100, 100]"
Cond,DecisionB,Stage,accuracy,avg_rt,count_decision_sequence,count_loop1,count_trial_sequence,font_size,height,init_time,payoff,response,rt,subject_nr,synth_backend,tTrajectory,time_experiment,width,xTrajectory,yTrajectory
"NoTrust","Teilnehmer A hat Ihnen keine 2 Punkte übermittelt.","Payback","1","undefined","0","0","0","60","1080","391","0","1","2526","0","legacy","[11, 21, 31, 41, 51, 61, 71, 81, 91, 101, 111, 121, 131, 141, 151, 161, 171, 181, 191, 201, 211, 221, 231, 241, 251, 261, 271, 281, 291, 301, 311, 321, 331, 341, 351, 361, 371, 381, 391, 401, 411, 421, 431, 441, 451, 461, 471, 481, 491, 501, 511, 521, 531, 541, 551, 561, 571, 581, 591, 601, 611, 621, 631, 641, 651, 661, 671, 681, 691, 701, 711, 721, 731, 741, 751, 761, 771, 781, 791, 801, 811, 821, 831, 841, 851, 861, 871, 881, 891, 901, 911, 921, 931, 941, 951, 961, 971, 981, 991, 1001, 1011, 1021, 1031, 1041, 1051, 1061, 1071, 1081, 1091, 1101, 1111, 1121, 1131, 1141, 1151, 1161, 1171, 1181, 1191, 1201, 1211, 1221, 1231, 1241, 1251, 1261, 1271, 1281, 1291, 1301, 1311, 1321, 1331, 1341, 1351, 1361, 1371, 1381, 1391, 1401, 1411, 1421, 1431, 1441, 1451, 1461, 1471, 1481, 1491, 1501, 1511, 1521, 1531, 1541, 1551, 1561, 1571, 1581, 1591, 1601, 1611, 1621, 1631, 1641, 1651, 1661, 1671, 1681, 1691, 1701, 1711, 1721, 1731, 1741, 1751, 1761, 1771, 1781, 1791, 1801, 1811, 1821, 1831, 1841, 1851, 1861, 1871, 1881, 1891, 1901, 1911, 1921, 1931, 1941, 1951, 1961, 1971, 1981, 1991, 2001, 2011, 2021, 2031, 2041, 2051, 2061, 2071, 2081, 2091, 2101, 2111, 2121, 2131, 2141, 2151, 2161, 2171, 2181, 2191, 2201, 2211, 2221, 2231, 2241, 2251, 2261, 2271, 2281, 2291, 2301, 2311, 2321, 2331, 2341, 2351, 2361, 2371, 2381, 2391, 2401, 2411, 2421, 2431, 2441, 2451, 2461, 2471, 2481, 2491, 2501, 2511, 2521]","1126","1920","[960, 960, 960, 960, 960, 960, 960, 960, 960, 960, 960, 960, 960, 960, 960, 960, 960, 960, 960, 960, 960, 959, 958, 957, 956, 955, 954, 954, 953, 953, 951, 949, 947, 943, 933, 928, 922, 919, 908, 904, 899, 895, 887, 883, 878, 874, 867, 864, 862, 858, 851, 849, 844, 840, 834, 832, 829, 827, 822, 819, 818, 816, 813, 811, 809, 808, 805, 802, 801, 799, 797, 796, 795, 794, 792, 792, 791, 790, 788, 787, 787, 786, 785, 784, 783, 782, 781, 781, 780, 780, 779, 778, 777, 777, 775, 774, 774, 774, 773, 772, 772, 772, 771, 771, 771, 771, 770, 769, 768, 768, 767, 767, 766, 766, 765, 764, 764, 764, 764, 764, 763, 763, 762, 762, 761, 761, 760, 759, 759, 758, 757, 755, 754, 753, 751, 749, 747, 746, 740, 737, 735, 733, 729, 727, 722, 719, 711, 707, 703, 697, 687, 682, 676, 671, 660, 656, 649, 645, 633, 630, 624, 618, 608, 603, 601, 596, 587, 583, 578, 575, 565, 558, 553, 550, 542, 538, 534, 529, 520, 517, 512, 510, 503, 501, 499, 497, 492, 490, 489, 486, 480, 477, 475, 471, 466, 463, 457, 454, 445, 441, 433, 427, 409, 400, 391, 385, 367, 357, 348, 338, 323, 318, 312, 310, 307, 305, 304, 303, 301, 300, 298, 297, 294, 291, 287, 283, 279, 276, 272, 270, 263, 261, 258, 256, 251, 250, 248, 246, 242, 240, 239, 236, 235, 234, 234, 233, 233, 231, 231, 231, 231, 231]","[1010, 1010, 1010, 1010, 1010, 1010, 1010, 1010, 1010, 1010, 1010, 1010, 1010, 1010, 1010, 1010, 1010, 1010, 1009, 1009, 1009, 1007, 1006, 1004, 1003, 1002, 1000, 1000, 999, 998, 996, 992, 989, 983, 968, 958, 948, 940, 921, 913, 905, 898, 883, 874, 866, 858, 847, 842, 838, 833, 823, 820, 813, 809, 800, 795, 791, 787, 778, 773, 772, 769, 763, 760, 758, 756, 751, 749, 747, 744, 742, 740, 738, 737, 735, 734, 733, 732, 730, 728, 728, 727, 725, 724, 722, 721, 720, 720, 718, 718, 717, 715, 714, 713, 712, 711, 710, 710, 709, 709, 709, 708, 707, 707, 706, 706, 705, 704, 703, 702, 701, 701, 700, 700, 698, 698, 696, 696, 696, 696, 695, 695, 694, 693, 692, 692, 688, 688, 687, 685, 682, 679, 678, 675, 668, 666, 662, 658, 649, 645, 641, 637, 630, 627, 619, 615, 601, 594, 586, 579, 562, 556, 547, 541, 525, 519, 511, 504, 490, 484, 477, 471, 460, 455, 452, 447, 438, 435, 431, 427, 418, 413, 408, 404, 398, 394, 391, 387, 380, 376, 373, 371, 363, 362, 360, 358, 353, 352, 350, 347, 341, 338, 334, 329, 323, 321, 314, 311, 300, 295, 286, 281, 266, 258, 250, 244, 230, 222, 210, 201, 185, 178, 171, 168, 162, 160, 159, 156, 154, 153, 150, 149, 145, 143, 141, 137, 132, 129, 127, 126, 122, 120, 118, 116, 113, 112, 111, 110, 108, 106, 106, 103, 103, 103, 102, 102, 102, 101, 100, 100, 100, 100]"
"Trust","Teilnehmer A hat Ihnen 2 Punkte übermittelt.","Payback","1","undefined","1","0","0","60","1080","391","5","1","3757","0","legacy","[11, 21, 31, 41, 51, 61, 71, 81, 91, 101, 111, 121, 131, 141, 151, 161, 171, 181, 191, 201, 211, 221, 231, 241, 251, 261, 271, 281, 291, 301, 311, 321, 331, 341, 351, 361, 371, 381, 391, 401, 411, 421, 431, 441, 451, 461, 471, 481, 491, 501, 511, 521, 531, 541, 551, 561, 571, 581, 591, 601, 611, 621, 631, 641, 651, 661, 671, 681, 691, 701, 711, 721, 731, 741, 751, 761, 771, 781, 791, 801, 811, 821, 831, 841, 851, 861, 871, 881, 891, 901, 911, 921, 931, 941, 951, 961, 971, 981, 991, 1001, 1011, 1021, 1031, 1041, 1051, 1061, 1071, 1081, 1091, 1101, 1111, 1121, 1131, 1141, 1151, 1161, 1171, 1181, 1191, 1201, 1211, 1221, 1231, 1241, 1251, 1261, 1271, 1281, 1291, 1301, 1311, 1321, 1331, 1341, 1351, 1361, 1371, 1381, 1391, 1401, 1411, 1421, 1431, 1441, 1451, 1461, 1471, 1481, 1491, 1501, 1511, 1521, 1531, 1541, 1551, 1561, 1571, 1581, 1591, 1601, 1611, 1621, 1631, 1641, 1651, 1661, 1671, 1681, 1691, 1701, 1711, 1721, 1731, 1741, 1751, 1761, 1771, 1781, 1791, 1801, 1811, 1821, 1831, 1841, 1851, 1861, 1871, 1881, 1891, 1901, 1911, 1921, 1931, 1941, 1951, 1961, 1971, 1981, 1991, 2001, 2011, 2021, 2031, 2041, 2051, 2061, 2071, 2081, 2091, 2101, 2111, 2121, 2131, 2141, 2151, 2161, 2171, 2181, 2191, 2201, 2211, 2221, 2231, 2241, 2251, 2261, 2271, 2281, 2291, 2301, 2311, 2321, 2331, 2341, 2351, 2361, 2371, 2381, 2391, 2401, 2411, 2421, 2431, 2441, 2451, 2461, 2471, 2481, 2491, 2501, 2511, 2521, 2531, 2541, 2551, 2561, 2571, 2581, 2591, 2601, 2611, 2621, 2631, 2641, 2651, 2661, 2671, 2681, 2691, 2701, 2711, 2721, 2731, 2741, 2751, 2761, 2771, 2781, 2791, 2801, 2811, 2821, 2831, 2841, 2851, 2861, 2871, 2881, 2891, 2901, 2911, 2921, 2931, 2941, 2951, 2961, 2971, 2981, 2991, 3001, 3011, 3021, 3031, 3041, 3051, 3061, 3071, 3081, 3091, 3101, 3111, 3121, 3131, 3141, 3151, 3161, 3171, 3181, 3191, 3201, 3211, 3221, 3231, 3241, 3251, 3261, 3271, 3281, 3291, 3301, 3311, 3321, 3331, 3341, 3351, 3361, 3371, 3381, 3391, 3401, 3411, 3421, 3431, 3441, 3451, 3461, 3471, 3481, 3491, 3501, 3511, 3521, 3531, 3541, 3551, 3561, 3571, 3581, 3591, 3601, 3611, 3621, 3631, 3641, 3651, 3661, 3671, 3681, 3691, 3701, 3711, 3721, 3731, 3741, 3751]","1126","1920","[960, 960, 960, 960, 960, 960, 960, 960, 960, 960, 960, 960, 960, 960, 960, 960, 960, 960, 960, 960, 960, 960, 960, 960, 960, 955, 953, 953, 952, 951, 946, 944, 940, 938, 930, 928, 924, 921, 915, 912, 909, 907, 901, 900, 898, 896, 895, 895, 893, 893, 893, 893, 893, 893, 892, 891, 891, 891, 891, 891, 891, 891, 890, 890, 890, 889, 888, 888, 887, 887, 887, 887, 886, 886, 886, 886, 885, 885, 885, 884, 884, 884, 883, 882, 882, 880, 877, 877, 877, 876, 875, 875, 875, 874, 873, 873, 873, 873, 872, 872, 872, 872, 872, 872, 872, 872, 872, 872, 872, 872, 872, 872, 872, 872, 871, 870, 870, 870, 869, 869, 869, 869, 869, 869, 869, 869, 869, 869, 869, 869, 869, 869, 869, 869, 869, 869, 869, 869, 869, 869, 869, 869, 869, 869, 869, 868, 867, 867, 867, 867, 867, 867, 866, 866, 866, 864, 864, 864, 863, 862, 862, 860, 860, 860, 860, 859, 858, 858, 858, 858, 857, 857, 856, 855, 855, 853, 853, 853, 852, 852, 851, 851, 849, 849, 849, 847, 847, 846, 845, 845, 844, 844, 844, 844, 843, 842, 842, 842, 840, 840, 840, 840, 840, 839, 838, 838, 836, 836, 834, 833, 829, 828, 825, 821, 814, 810, 804, 799, 781, 774, 765, 756, 739, 732, 720, 711, 692, 677, 667, 654, 630, 619, 608, 603, 587, 581, 574, 565, 546, 537, 527, 519, 505, 497, 489, 483, 473, 468, 462, 457, 448, 445, 443, 441, 437, 434, 433, 431, 428, 427, 425, 424, 419, 416, 412, 410, 399, 397, 393, 391, 383, 381, 378, 376, 373, 371, 369, 368, 364, 361, 358, 356, 352, 350, 349, 347, 343, 341, 340, 337, 334, 333, 331, 330, 327, 323, 323, 321, 317, 317, 315, 315, 311, 311, 308, 306, 303, 300, 298, 296, 290, 287, 284, 281, 273, 271, 267, 261, 255, 253, 248, 246, 242, 241, 237, 236, 232, 232, 230, 228, 226, 225, 223, 223, 219, 217, 216, 215, 212, 209, 209, 209, 209, 208, 208, 208, 208, 208, 208, 208, 208, 207, 207, 207, 206, 206, 206, 206, 206, 206, 206, 206, 206, 206, 206, 206, 206, 206, 206, 206, 206, 206, 206, 206, 206]","[1010, 1010, 1010, 1010, 1010, 1010, 1010, 1010, 1010, 1010, 1010, 1010, 1010, 1010, 1010, 1010, 1010, 1010, 1010, 1010, 1010, 1010, 1010, 1010, 1010, 1008, 1005, 1003, 1000, 997, 988, 984, 979, 974, 962, 957, 951, 944, 930, 921, 915, 911, 903, 899, 896, 894, 887, 885, 882, 882, 878, 877, 876, 876, 875, 873, 873, 873, 872, 872, 872, 871, 870, 870, 870, 869, 867, 867, 866, 866, 866, 866, 864, 864, 863, 863, 862, 861, 860, 860, 859, 858, 857, 855, 854, 852, 849, 848, 847, 845, 843, 841, 839, 838, 836, 836, 836, 836, 835, 835, 835, 835, 835, 834, 834, 834, 834, 834, 834, 834, 833, 833, 833, 833, 832, 831, 831, 831, 830, 830, 830, 830, 830, 830, 830, 830, 830, 830, 830, 830, 830, 830, 830, 830, 830, 830, 830, 830, 830, 830, 830, 829, 828, 828, 828, 827, 827, 826, 826, 825, 824, 824, 822, 822, 821, 819, 818, 817, 815, 814, 812, 811, 809, 808, 807, 806, 804, 803, 802, 801, 798, 798, 796, 795, 794, 792, 792, 792, 790, 789, 788, 788, 786, 784, 783, 782, 781, 779, 779, 779, 777, 777, 775, 775, 773, 772, 771, 771, 769, 769, 768, 766, 766, 765, 764, 763, 759, 758, 756, 753, 748, 743, 740, 735, 723, 715, 707, 698, 676, 664, 649, 637, 613, 600, 585, 571, 529, 507, 486, 464, 423, 406, 392, 382, 358, 348, 335, 321, 297, 287, 277, 270, 258, 251, 245, 239, 229, 224, 220, 216, 208, 206, 204, 202, 198, 196, 196, 194, 192, 190, 189, 187, 184, 182, 179, 177, 169, 167, 165, 163, 157, 155, 154, 151, 148, 147, 145, 144, 140, 138, 136, 135, 131, 129, 128, 127, 124, 122, 121, 119, 117, 115, 114, 113, 110, 108, 107, 106, 103, 102, 101, 100, 96, 94, 92, 90, 86, 84, 81, 79, 74, 72, 70, 67, 60, 58, 55, 52, 47, 45, 42, 41, 38, 37, 34, 34, 31, 30, 30, 28, 27, 26, 25, 24, 23, 21, 21, 20, 19, 18, 18, 18, 18, 18, 18, 18, 18, 18, 18, 18, 18, 18, 18, 18, 18, 18, 18, 18, 18, 18, 18, 18, 18, 18, 18, 18, 18, 18, 18, 18, 18, 18, 18, 18, 18]"
"Trust","Teilnehmer A hat Ihnen 2 Punkte übermittelt.","Payback","1","undefined","2","0","0","60","1080","381","5","1","2198","0","legacy","[11, 21, 31, 41, 51, 61, 71, 81, 91, 101, 111, 121, 131, 141, 151, 161, 171, 181, 191, 201, 211, 221, 231, 241, 251, 261, 271, 281, 291, 301, 311, 321, 331, 341, 351, 361, 371, 381, 391, 401, 411, 421, 431, 441, 451, 461, 471, 481, 491, 501, 511, 521, 531, 541, 551, 561, 571, 581, 591, 601, 611, 621, 631, 641, 651, 661, 671, 681, 691, 701, 711, 721, 731, 741, 751, 761, 771, 781, 791, 801, 811, 821, 831, 841, 851, 861, 871, 881, 891, 901, 911, 921, 931, 941, 951, 961, 971, 981, 991, 1001, 1011, 1021, 1031, 1041, 1051, 1061, 1071, 1081, 1091, 1101, 1111, 1121, 1131, 1141, 1151, 1161, 1171, 1181, 1191, 1201, 1211, 1221, 1231, 1241, 1251, 1261, 1271, 1281, 1291, 1301, 1311, 1321, 1331, 1341, 1351, 1361, 1371, 1381, 1391, 1401, 1411, 1421, 1431, 1441, 1451, 1461, 1471, 1481, 1491, 1501, 1511, 1521, 1531, 1541, 1551, 1561, 1571, 1581, 1591, 1601, 1611, 1621, 1631, 1641, 1651, 1661, 1671, 1681, 1691, 1701, 1711, 1721, 1731, 1741, 1751, 1761, 1771, 1781, 1791, 1801, 1811, 1821, 1831, 1841, 1851, 1861, 1871, 1881, 1891, 1901, 1911, 1921, 1931, 1941, 1951, 1961, 1971, 1981, 1991, 2001, 2011, 2021, 2031, 2041, 2051, 2061, 2071, 2081, 2091, 2101, 2111, 2121, 2131, 2141, 2151, 2161, 2171, 2181, 2191]","1126","1920","[960, 960, 960, 960, 960, 960, 960, 960, 960, 960, 960, 960, 960, 960, 960, 960, 960, 960, 960, 960, 960, 960, 960, 960, 960, 960, 960, 960, 960, 960, 960, 959, 957, 956, 946, 942, 939, 934, 920, 913, 906, 900, 889, 880, 875, 869, 849, 842, 835, 831, 816, 808, 801, 793, 782, 776, 769, 763, 751, 743, 736, 731, 720, 714, 709, 706, 700, 698, 696, 692, 687, 683, 680, 676, 667, 662, 657, 654, 648, 643, 639, 637, 630, 627, 623, 621, 612, 608, 603, 599, 590, 586, 582, 576, 569, 566, 562, 559, 555, 554, 551, 550, 546, 543, 542, 539, 532, 530, 526, 523, 515, 510, 506, 502, 494, 490, 485, 480, 472, 468, 466, 463, 458, 456, 454, 451, 446, 444, 441, 439, 434, 431, 426, 423, 417, 413, 410, 408, 404, 402, 400, 398, 393, 391, 389, 387, 383, 380, 377, 376, 371, 370, 368, 365, 361, 358, 355, 351, 341, 335, 328, 321, 302, 292, 279, 263, 231, 220, 210, 201, 188, 183, 178, 178, 176, 176, 175, 174, 174, 174, 174, 174, 174, 174, 174, 174, 174, 174, 174, 174, 174, 174, 174, 174, 174, 174, 174, 174, 174, 174, 174, 174, 174, 174, 174, 174, 174, 174, 174, 174, 174, 174, 174, 174, 174, 174, 174, 174, 174]","[1010, 1010, 1010, 1010, 1010, 1010, 1010, 1010, 1010, 1010, 1010, 1010, 1010, 1010, 1010, 1010, 1010, 1010, 1010, 1010, 1010, 1010, 1010, 1010, 1010, 1010, 1010, 1010, 1010, 1009, 1003, 999, 993, 986, 966, 955, 941, 930, 902, 890, 879, 867, 842, 827, 815, 799, 764, 754, 739, 733, 712, 701, 689, 676, 657, 648, 638, 629, 612, 601, 592, 586, 571, 562, 556, 550, 543, 540, 538, 533, 526, 520, 516, 511, 503, 498, 495, 492, 486, 482, 479, 476, 471, 467, 463, 460, 452, 447, 443, 437, 427, 423, 418, 413, 403, 400, 395, 392, 387, 384, 381, 380, 374, 372, 369, 366, 359, 356, 351, 349, 341, 338, 332, 327, 319, 314, 310, 306, 298, 295, 292, 289, 283, 281, 278, 274, 269, 265, 263, 260, 256, 253, 251, 249, 243, 241, 239, 237, 233, 231, 229, 228, 224, 220, 218, 216, 211, 208, 204, 201, 194, 192, 191, 187, 183, 179, 175, 171, 163, 157, 151, 147, 136, 131, 126, 119, 108, 103, 100, 97, 90, 90, 87, 86, 85, 85, 85, 85, 84, 84, 84, 84, 84, 84, 84, 84, 84, 84, 84, 84, 84, 84, 84, 84, 84, 84, 84, 84, 84, 84, 84, 84, 84, 84, 84, 84, 84, 84, 84, 84, 84, 84, 84, 84, 84, 84, 84, 84, 84]"
"Promise","Wie oft werden Sie die Hälfte zurückgeben?","Promise","0","undefined","2","0","1","60","1080","1191","5","2","2071","0","legacy","[11, 21, 31, 41, 51, 61, 71, 81, 91, 101, 111, 121, 131, 141, 151, 161, 171, 181, 191, 201, 211, 221, 231, 241, 251, 261, 271, 281, 291, 301, 311, 321, 331, 341, 351, 361, 371, 381, 391, 401, 411, 421, 431, 441, 451, 461, 471, 481, 491, 501, 511, 521, 531, 541, 551, 561, 571, 581, 591, 601, 611, 621, 631, 641, 651, 661, 671, 681, 691, 701, 711, 721, 731, 741, 751, 761, 771, 781, 791, 801, 811, 821, 831, 841, 851, 861, 871, 881, 891, 901, 911, 921, 931, 941, 951, 961, 971, 981, 991, 1001, 1011, 1021, 1031, 1041, 1051, 1061, 1071, 1081, 1091, 1101, 1111, 1121, 1131, 1141, 1151, 1161, 1171, 1181, 1191, 1201, 1211, 1221, 1231, 1241, 1251, 1261, 1271, 1281, 1291, 1301, 1311, 1321, 1331, 1341, 1351, 1361, 1371, 1381, 1391, 1401, 1411, 1421, 1431, 1441, 1451, 1461, 1471, 1481, 1491, 1501, 1511, 1521, 1531, 1541, 1551, 1561, 1571, 1581, 1591, 1601, 1611, 1621, 1631, 1641, 1651, 1661, 1671, 1681, 1691, 1701, 1711, 1721, 1731, 1741, 1751, 1761, 1771, 1781, 1791, 1801, 1811, 1821, 1831, 1841, 1851, 1861, 1871, 1881, 1891, 1901, 1911, 1921, 1931, 1941, 1951, 1961, 1971, 1981, 1991, 2001, 2011, 2021, 2031, 2041, 2051, 2061, 2071]","1126","1920","[960, 960, 960, 960, 960, 960, 960, 960, 960, 960, 960, 960, 960, 960, 960, 960, 960, 960, 960, 960, 960, 960, 960, 960, 960, 960, 960, 960, 960, 960, 960, 960, 960, 960, 960, 960, 960, 960, 960, 960, 960, 960, 960, 960, 960, 960, 960, 960, 960, 960, 960, 960, 960, 960, 960, 960, 960, 960, 960, 960, 960, 960, 960, 960, 960, 960, 960, 960, 960, 960, 960, 960, 960, 960, 960, 960, 960, 960, 960, 957, 957, 957, 956, 956, 956, 956, 956, 956, 956, 956, 956, 956, 956, 956, 956, 956, 956, 956, 956, 956, 956, 956, 956, 956, 956, 956, 957, 963, 965, 968, 971, 975, 979, 984, 992, 1006, 1016, 1028, 1042, 1056, 1066, 1074, 1081, 1103, 1118, 1133, 1152, 1184, 1197, 1209, 1222, 1246, 1259, 1271, 1282, 1312, 1319, 1330, 1334, 1344, 1348, 1350, 1352, 1356, 1358, 1358, 1359, 1362, 1362, 1363, 1364, 1367, 1369, 1373, 1375, 1385, 1390, 1395, 1400, 1411, 1417, 1422, 1427, 1438, 1440, 1445, 1448, 1456, 1460, 1464, 1469, 1479, 1484, 1489, 1493, 1506, 1510, 1518, 1525, 1541, 1551, 1560, 1571, 1587, 1597, 1603, 1610, 1623, 1628, 1633, 1637, 1645, 1648, 1653, 1654, 1656, 1656, 1656, 1656, 1656, 1656, 1656, 1656, 1656, 1656, 1656, 1656]","[1010, 1010, 1010, 1010, 1010, 1010, 1010, 1010, 1010, 1010, 1010, 1010, 1010, 1010, 1010, 1010, 1010, 1010, 1010, 1010, 1010, 1010, 1010, 1010, 1010, 1010, 1010, 1010, 1010, 1010, 1010, 1010, 1010, 1010, 1010, 1010, 1010, 1010, 1010, 1010, 1010, 1010, 1010, 1010, 1010, 1010, 1010, 1010, 1010, 1010, 1010, 1010, 1010, 1010, 1010, 1010, 1010, 1010, 1010, 1010, 1010, 1010, 1010, 1010, 1010, 1010, 1010, 1010, 1010, 1010, 1010, 1010, 1010, 1010, 1010, 1010, 1010, 1010, 1010, 1010, 1010, 1010, 1010, 1012, 1012, 1012, 1012, 1012, 1012, 1012, 1012, 1012, 1012, 1012, 1012, 1012, 1012, 1012, 1012, 1012, 1012, 1012, 1012, 1012, 1012, 1012, 1012, 1011, 1010, 1010, 1010, 1007, 1006, 1002, 994, 974, 962, 943, 920, 880, 857, 826, 799, 724, 682, 642, 602, 530, 503, 481, 457, 423, 408, 393, 376, 334, 321, 300, 288, 267, 261, 252, 245, 231, 225, 219, 216, 210, 208, 204, 203, 199, 196, 192, 190, 183, 180, 176, 172, 165, 161, 157, 153, 146, 144, 140, 137, 130, 126, 123, 119, 113, 111, 107, 104, 96, 94, 88, 85, 75, 70, 67, 62, 56, 51, 48, 46, 40, 38, 36, 35, 33, 32, 31, 30, 30, 29, 29, 29, 29, 29, 29, 29, 29, 29, 29, 29]"
"Trust","Teilnehmer A hat Ihnen 2 Punkte übermittelt.","Payback","0","undefined","3","0","1","60","1080","571","10","2","1661","0","legacy","[11, 21, 31, 41, 51, 61, 71, 81, 91, 101, 111, 121, 131, 141, 151, 161, 171, 181, 191, 201, 211, 221, 231, 241, 251, 261, 271, 281, 291, 301, 311, 321, 331, 341, 351, 361, 371, 381, 391, 401, 411, 421, 431, 441, 451, 461, 471, 481, 491, 501, 511, 521, 531, 541, 551, 561, 571, 581, 591, 601, 611, 621, 631, 641, 651, 661, 671, 681, 691, 701, 711, 721, 731, 741, 751, 761, 771, 781, 791, 801, 811, 821, 831, 841, 851, 861, 871, 881, 891, 901, 911, 921, 931, 941, 951, 961, 971, 981, 991, 1001, 1011, 1021, 1031, 1041, 1051, 1061, 1071, 1081, 1091, 1101, 1111, 1121, 1131, 1141, 1151, 1161, 1171, 1181, 1191, 1201, 1211, 1221, 1231, 1241, 1251, 1261, 1271, 1281, 1291, 1301, 1311, 1321, 1331, 1341, 1351, 1361, 1371, 1381, 1391, 1401, 1411, 1421, 1431, 1441, 1451, 1461, 1471, 1481, 1491, 1501, 1511, 1521, 1531, 1541, 1551, 1561, 1571, 1581, 1591, 1601, 1611, 1621, 1631, 1641, 1651, 1661]","1126","1920","[960, 960, 960, 960, 960, 960, 960, 960, 960, 960, 960, 960, 960, 960, 960, 960, 960, 960, 960, 960, 960, 960, 960, 960, 960, 960, 960, 960, 960, 960, 960, 960, 960, 959, 959, 959, 958, 957, 956, 956, 955, 954, 953, 953, 953, 952, 952, 952, 952, 952, 952, 952, 952, 953, 955, 955, 955, 955, 957, 957, 957, 958, 958, 958, 958, 959, 963, 963, 967, 968, 972, 975, 976, 980, 992, 1000, 1011, 1018, 1036, 1042, 1047, 1050, 1057, 1062, 1065, 1069, 1077, 1081, 1087, 1089, 1098, 1103, 1108, 1114, 1120, 1124, 1129, 1131, 1140, 1146, 1151, 1157, 1173, 1183, 1192, 1206, 1232, 1244, 1261, 1274, 1308, 1326, 1341, 1360, 1399, 1423, 1445, 1458, 1482, 1490, 1498, 1504, 1519, 1522, 1527, 1531, 1538, 1542, 1546, 1547, 1551, 1552, 1555, 1558, 1566, 1571, 1581, 1589, 1612, 1625, 1639, 1649, 1669, 1672, 1678, 1681, 1686, 1688, 1688, 1689, 1689, 1689, 1689, 1689, 1690, 1691, 1691, 1691, 1691, 1692, 1692, 1692, 1692, 1692, 1692, 1692]","[1010, 1010, 1010, 1010, 1010, 1010, 1010, 1010, 1010, 1010, 1010, 1010, 1010, 1010, 1010, 1010, 1010, 1010, 1010, 1010, 1010, 1010, 1009, 1009, 1009, 1009, 1008, 1008, 1008, 1008, 1008, 1008, 1007, 1006, 1005, 1005, 1004, 1002, 999, 998, 995, 990, 987, 985, 983, 981, 979, 977, 975, 973, 967, 963, 957, 951, 945, 942, 939, 936, 934, 932, 929, 927, 922, 920, 917, 914, 906, 904, 898, 893, 883, 877, 873, 867, 846, 833, 819, 807, 781, 772, 764, 755, 739, 732, 727, 721, 710, 703, 696, 691, 678, 671, 664, 656, 643, 638, 632, 626, 613, 606, 598, 590, 566, 555, 542, 526, 498, 483, 465, 448, 409, 386, 366, 347, 303, 279, 258, 245, 222, 214, 205, 197, 180, 175, 169, 163, 154, 150, 147, 144, 141, 141, 139, 138, 133, 129, 126, 122, 110, 102, 94, 89, 79, 76, 73, 72, 67, 66, 65, 65, 65, 65, 65, 65, 65, 64, 64, 64, 64, 63, 63, 63, 63, 63, 63, 63]"
"Trust","Teilnehmer A hat Ihnen 2 Punkte übermittelt.","Payback","1","undefined","4","0","1","60","1080","261","5","1","1644","0","legacy","[11, 21, 31, 41, 51, 61, 71, 81, 91, 101, 111, 121, 131, 141, 151, 161, 171, 181, 191, 201, 211, 221, 231, 241, 251, 261, 271, 281, 291, 301, 311, 321, 331, 341, 351, 361, 371, 381, 391, 401, 411, 421, 431, 441, 451, 461, 471, 481, 491, 501, 511, 521, 531, 541, 551, 561, 571, 581, 591, 601, 611, 621, 631, 641, 651, 661, 671, 681, 691, 701, 711, 721, 731, 741, 751, 761, 771, 781, 791, 801, 811, 821, 831, 841, 851, 861, 871, 881, 891, 901, 911, 921, 931, 941, 951, 961, 971, 981, 991, 1001, 1011, 1021, 1031, 1041, 1051, 1061, 1071, 1081, 1091, 1101, 1111, 1121, 1131, 1141, 1151, 1161, 1171, 1181, 1191, 1201, 1211, 1221, 1231, 1241, 1251, 1261, 1271, 1281, 1291, 1301, 1311, 1321, 1331, 1341, 1351, 1361, 1371, 1381, 1391, 1401, 1411, 1421, 1431, 1441, 1451, 1461, 1471, 1481, 1491, 1501, 1511, 1521, 1531, 1541, 1551, 1561, 1571, 1581, 1591, 1601, 1611, 1621, 1631, 1641]","1126","1920","[960, 960, 960, 960, 960, 960, 960, 960, 960, 960, 960, 960, 960, 960, 960, 960, 960, 958, 957, 954, 951, 939, 930, 921, 908, 863, 824, 785, 746, 673, 633, 602, 575, 546, 540, 533, 529, 524, 522, 518, 516, 509, 506, 503, 500, 496, 494, 492, 486, 480, 476, 473, 471, 465, 462, 460, 457, 451, 450, 448, 445, 441, 441, 438, 437, 433, 430, 427, 423, 414, 409, 406, 402, 397, 391, 387, 381, 370, 364, 359, 354, 343, 337, 335, 330, 317, 309, 302, 295, 281, 276, 270, 267, 261, 259, 255, 253, 249, 246, 244, 242, 239, 237, 235, 233, 230, 228, 227, 227, 224, 223, 222, 221, 221, 221, 221, 220, 219, 218, 218, 218, 218, 218, 217, 217, 217, 217, 217, 217, 217, 217, 217, 217, 217, 217, 217, 217, 217, 217, 217, 217, 217, 217, 217, 217, 217, 217, 217, 217, 217, 217, 217, 217, 217, 217, 217, 217, 217, 217, 217, 217, 217, 217, 217]","[1010, 1010, 1010, 1010, 1010, 1010, 1010, 1010, 1010, 1010, 1010, 1010, 1010, 1009, 1008, 1006, 1005, 1002, 1001, 997, 994, 986, 979, 971, 955, 896, 850, 807, 762, 682, 646, 608, 579, 542, 533, 525, 520, 515, 513, 509, 506, 497, 493, 490, 486, 483, 479, 477, 468, 460, 455, 450, 448, 441, 439, 435, 433, 427, 425, 422, 419, 414, 411, 407, 405, 399, 393, 390, 381, 367, 360, 353, 346, 328, 319, 309, 298, 279, 269, 261, 255, 240, 232, 227, 221, 209, 202, 196, 189, 178, 173, 167, 164, 158, 155, 152, 150, 144, 142, 138, 136, 132, 128, 127, 123, 120, 118, 116, 114, 111, 110, 108, 108, 106, 106, 106, 105, 104, 104, 104, 104, 103, 103, 102, 102, 102, 102, 102, 102, 102, 102, 102, 102, 102, 102, 102, 102, 102, 102, 102, 102, 102, 102, 102, 102, 102, 102, 102, 102, 102, 102, 102, 102, 102, 102, 102, 102, 102, 102, 102, 102, 102, 102, 102]"
"Trust","Teilnehmer A hat Ihnen 2 Punkte übermittelt.","Payback","0","undefined","5","0","1","60","1080","421","10","2","1844","0","legacy","[11, 21, 31, 41, 51, 61, 71, 81, 91, 101, 111, 121, 131, 141, 151, 161, 171, 181, 191, 201, 211, 221, 231, 241, 251, 261, 271, 281, 291, 301, 311, 321, 331, 341, 351, 361, 371, 381, 391, 401, 411, 421, 431, 441, 451, 461, 471, 481, 491, 501, 511, 521, 531, 541, 551, 561, 571, 581, 591, 601, 611, 621, 631, 641, 651, 661, 671, 681, 691, 701, 711, 721, 731, 741, 751, 761, 771, 781, 791, 801, 811, 821, 831, 841, 851, 861, 871, 881, 891, 901, 911, 921, 931, 941, 951, 961, 971, 981, 991, 1001, 1011, 1021, 1031, 1041, 1051, 1061, 1071, 1081, 1091, 1101, 1111, 1121, 1131, 1141, 1151, 1161, 1171, 1181, 1191, 1201, 1211, 1221, 1231, 1241, 1251, 1261, 1271, 1281, 1291, 1301, 1311, 1321, 1331, 1341, 1351, 1361, 1371, 1381, 1391, 1401, 1411, 1421, 1431, 1441, 1451, 1461, 1471, 1481, 1491, 1501, 1511, 1521, 1531, 1541, 1551, 1561, 1571, 1581, 1591, 1601, 1611, 1621, 1631, 1641, 1651, 1661, 1671, 1681, 1691, 1701, 1711, 1721, 1731, 1741, 1751, 1761, 1771, 1781, 1791, 1801, 1811, 1821, 1831, 1841]","1126","1920","[960, 960, 960, 960, 960, 960, 960, 958, 958, 957, 957, 957, 957, 957, 957, 957, 957, 957, 957, 957, 957, 957, 957, 957, 957, 957, 957, 957, 957, 957, 957, 957, 957, 957, 957, 958, 959, 961, 965, 966, 972, 982, 989, 994, 1002, 1014, 1018, 1023, 1026, 1033, 1037, 1041, 1044, 1046, 1049, 1049, 1050, 1054, 1057, 1059, 1064, 1075, 1083, 1089, 1097, 1111, 1119, 1127, 1135, 1150, 1159, 1166, 1173, 1183, 1188, 1192, 1198, 1207, 1213, 1217, 1221, 1232, 1237, 1242, 1250, 1262, 1269, 1274, 1280, 1290, 1296, 1301, 1306, 1321, 1328, 1336, 1344, 1359, 1367, 1374, 1381, 1394, 1401, 1407, 1412, 1422, 1430, 1436, 1439, 1450, 1455, 1459, 1465, 1472, 1478, 1483, 1487, 1501, 1508, 1517, 1523, 1537, 1542, 1549, 1554, 1564, 1568, 1574, 1578, 1586, 1590, 1593, 1595, 1602, 1605, 1607, 1611, 1617, 1620, 1620, 1621, 1623, 1624, 1624, 1625, 1626, 1627, 1627, 1628, 1630, 1632, 1634, 1636, 1640, 1642, 1643, 1645, 1648, 1650, 1651, 1653, 1654, 1654, 1654, 1654, 1656, 1656, 1656, 1656, 1656, 1656, 1656, 1656, 1656, 1656, 1656, 1656, 1656, 1656, 1656, 1656, 1656, 1656, 1656]","[1010, 1010, 1010, 1010, 1010, 1010, 1010, 1010, 1010, 1009, 1009, 1009, 1008, 1008, 1008, 1008, 1008, 1008, 1008, 1008, 1008, 1008, 1008, 1007, 1007, 1007, 1007, 1007, 1007, 1006, 1006, 1006, 1005, 1005, 1003, 1001, 999, 989, 980, 970, 959, 926, 901, 881, 859, 821, 809, 796, 788, 774, 769, 763, 757, 752, 748, 747, 744, 739, 734, 731, 722, 709, 698, 690, 681, 667, 657, 647, 636, 613, 599, 589, 578, 559, 550, 544, 535, 520, 509, 500, 493, 475, 468, 459, 448, 432, 424, 418, 411, 397, 388, 382, 374, 358, 349, 341, 335, 321, 315, 308, 303, 291, 287, 283, 280, 274, 270, 267, 264, 259, 255, 252, 248, 243, 239, 237, 235, 227, 223, 218, 214, 204, 199, 194, 190, 181, 177, 172, 168, 163, 158, 154, 151, 141, 136, 133, 128, 122, 117, 117, 115, 112, 111, 111, 111, 111, 110, 110, 108, 108, 106, 105, 104, 101, 99, 99, 97, 94, 93, 93, 92, 91, 91, 91, 91, 90, 90, 90, 90, 90, 90, 90, 90, 90, 90, 90, 90, 90, 90, 90, 90, 90, 90, 90]"
"Promise","Wie oft werden Sie die Hälfte zurückgeben?","Promise","1","undefined","5","0","2","60","1080","431","10","1","2063","0","legacy","[11, 21, 31, 41, 51, 61, 71, 81, 91, 101, 111, 121, 131, 141, 151, 161, 171, 181, 191, 201, 211, 221, 231, 241, 251, 261, 271, 281, 291, 301, 311, 321, 331, 341, 351, 361, 371, 381, 391, 401, 411, 421, 431, 441, 451, 461, 471, 481, 491, 501, 511, 521, 531, 541, 551, 561, 571, 581, 591, 601, 611, 621, 631, 641, 651, 661, 671, 681, 691, 701, 711, 721, 731, 741, 751, 761, 771, 781, 791, 801, 811, 821, 831, 841, 851, 861, 871, 881, 891, 901, 911, 921, 931, 941, 951, 961, 971, 981, 991, 1001, 1011, 1021, 1031, 1041, 1051, 1061, 1071, 1081, 1091, 1101, 1111, 1121, 1131, 1141, 1151, 1161, 1171, 1181, 1191, 1201, 1211, 1221, 1231, 1241, 1251, 1261, 1271, 1281, 1291, 1301, 1311, 1321, 1331, 1341, 1351, 1361, 1371, 1381, 1391, 1401, 1411, 1421, 1431, 1441, 1451, 1461, 1471, 1481, 1491, 1501, 1511, 1521, 1531, 1541, 1551, 1561, 1571, 1581, 1591, 1601, 1611, 1621, 1631, 1641, 1651, 1661, 1671, 1681, 1691, 1701, 1711, 1721, 1731, 1741, 1751, 1761, 1771, 1781, 1791, 1801, 1811, 1821, 1831, 1841, 1851, 1861, 1871, 1881, 1891, 1901, 1911, 1921, 1931, 1941, 1951, 1961, 1971, 1981, 1991, 2001, 2011, 2021, 2031, 2041, 2051, 2061]","1126","1920","[960, 960, 960, 960, 960, 960, 960, 960, 960, 960, 960, 960, 960, 960, 960, 960, 960, 959, 959, 958, 958, 957, 956, 956, 953, 953, 952, 949, 947, 944, 943, 936, 935, 933, 931, 927, 925, 923, 921, 917, 916, 914, 912, 907, 907, 905, 903, 899, 895, 894, 893, 888, 886, 885, 882, 878, 875, 872, 869, 865, 863, 861, 859, 853, 849, 843, 839, 832, 829, 825, 824, 820, 817, 813, 811, 806, 803, 800, 797, 791, 788, 784, 782, 777, 773, 771, 768, 761, 759, 755, 752, 746, 744, 741, 737, 729, 726, 724, 719, 712, 708, 704, 702, 694, 690, 687, 683, 678, 674, 671, 670, 664, 659, 658, 655, 651, 649, 646, 644, 640, 636, 635, 631, 627, 623, 621, 618, 613, 609, 606, 603, 596, 591, 588, 584, 575, 570, 566, 559, 552, 548, 543, 538, 530, 522, 515, 509, 483, 465, 435, 412, 356, 331, 308, 288, 256, 249, 244, 239, 234, 232, 230, 229, 226, 224, 221, 220, 216, 214, 212, 209, 204, 202, 199, 196, 188, 184, 182, 179, 176, 174, 174, 172, 170, 169, 168, 167, 166, 166, 166, 165, 165, 164, 164, 164, 163, 163, 163, 163, 163, 163, 163, 163, 163, 163, 163]","[1010, 1010, 1010, 1010, 1010, 1010, 1010, 1010, 1010, 1010, 1010, 1010, 1010, 1010, 1010, 1010, 1010, 1010, 1010, 1010, 1010, 1008, 1007, 1005, 1002, 1002, 1000, 995, 992, 987, 982, 971, 969, 966, 964, 958, 954, 953, 950, 944, 942, 940, 938, 931, 929, 927, 924, 919, 915, 915, 913, 907, 905, 903, 900, 895, 892, 888, 886, 882, 879, 878, 875, 869, 865, 860, 856, 848, 846, 841, 839, 830, 825, 820, 817, 809, 804, 799, 795, 786, 782, 776, 772, 766, 761, 758, 753, 745, 743, 738, 734, 728, 725, 721, 715, 706, 700, 697, 692, 681, 676, 671, 667, 656, 650, 647, 642, 632, 628, 625, 623, 615, 610, 608, 605, 598, 595, 592, 590, 585, 582, 580, 576, 570, 562, 561, 555, 548, 544, 539, 534, 525, 517, 513, 506, 492, 487, 481, 472, 460, 452, 445, 437, 424, 412, 403, 397, 367, 350, 331, 313, 276, 258, 241, 226, 203, 196, 191, 186, 179, 177, 174, 173, 169, 168, 165, 164, 160, 158, 155, 151, 143, 141, 137, 132, 123, 120, 117, 114, 111, 110, 109, 108, 106, 105, 105, 104, 103, 101, 101, 100, 100, 99, 99, 99, 98, 98, 98, 98, 98, 98, 98, 98, 98, 98, 98]"
"NoTrust","Teilnehmer A hat Ihnen keine 2 Punkte übermittelt.","Payback","1","undefined","6","0","2","60","1080","431","0","1","2063","0","legacy","[11, 21, 31, 41, 51, 61, 71, 81, 91, 101, 111, 121, 131, 141, 151, 161, 171, 181, 191, 201, 211, 221, 231, 241, 251, 261, 271, 281, 291, 301, 311, 321, 331, 341, 351, 361, 371, 381, 391, 401, 411, 421, 431, 441, 451, 461, 471, 481, 491, 501, 511, 521, 531, 541, 551, 561, 571, 581, 591, 601, 611, 621, 631, 641, 651, 661, 671, 681, 691, 701, 711, 721, 731, 741, 751, 761, 771, 781, 791, 801, 811, 821, 831, 841, 851, 861, 871, 881, 891, 901, 911, 921, 931, 941, 951, 961, 971, 981, 991, 1001, 1011, 1021, 1031, 1041, 1051, 1061, 1071, 1081, 1091, 1101, 1111, 1121, 1131, 1141, 1151, 1161, 1171, 1181, 1191, 1201, 1211, 1221, 1231, 1241, 1251, 1261, 1271, 1281, 1291, 1301, 1311, 1321, 1331, 1341, 1351, 1361, 1371, 1381, 1391, 1401, 1411, 1421, 1431, 1441, 1451, 1461, 1471, 1481, 1491, 1501, 1511, 1521, 1531, 1541, 1551, 1561, 1571, 1581, 1591, 1601, 1611, 1621, 1631, 1641, 1651, 1661, 1671, 1681, 1691, 1701, 1711, 1721, 1731, 1741, 1751, 1761, 1771, 1781, 1791, 1801, 1811, 1821, 1831, 1841, 1851, 1861, 1871, 1881, 1891, 1901, 1911, 1921, 1931, 1941, 1951, 1961, 1971, 1981, 1991, 2001, 2011, 2021, 2031, 2041, 2051, 2061]","1126","1920","[960, 960, 960, 960, 960, 960, 960, 960, 960, 960, 960, 960, 960, 960, 960, 960, 960, 959, 959, 958, 958, 957, 956, 956, 953, 953, 952, 949, 947, 944, 943, 936, 935, 933, 931, 927, 925, 923, 921, 917, 916, 914, 912, 907, 907, 905, 903, 899, 895, 894, 893, 888, 886, 885, 882, 878, 875, 872, 869, 865, 863, 861, 859, 853, 849, 843, 839, 832, 829, 825, 824, 820, 817, 813, 811, 806, 803, 800, 797, 791, 788, 784, 782, 777, 773, 771, 768, 761, 759, 755, 752, 746, 744, 741, 737, 729, 726, 724, 719, 712, 708, 704, 702, 694, 690, 687, 683, 678, 674, 671, 670, 664, 659, 658, 655, 651, 649, 646, 644, 640, 636, 635, 631, 627, 623, 621, 618, 613, 609, 606, 603, 596, 591, 588, 584, 575, 570, 566, 559, 552, 548, 543, 538, 530, 522, 515, 509, 483, 465, 435, 412, 356, 331, 308, 288, 256, 249, 244, 239, 234, 232, 230, 229, 226, 224, 221, 220, 216, 214, 212, 209, 204, 202, 199, 196, 188, 184, 182, 179, 176, 174, 174, 172, 170, 169, 168, 167, 166, 166, 166, 165, 165, 164, 164, 164, 163, 163, 163, 163, 163, 163, 163, 163, 163, 163, 163]","[1010, 1010, 1010, 1010, 1010, 1010, 1010, 1010, 1010, 1010, 1010, 1010, 1010, 1010, 1010, 1010, 1010, 1010, 1010, 1010, 1010, 1008, 1007, 1005, 1002, 1002, 1000, 995, 992, 987, 982, 971, 969, 966, 964, 958, 954, 953, 950, 944, 942, 940, 938, 931, 929, 927, 924, 919, 915, 915, 913, 907, 905, 903, 900, 895, 892, 888, 886, 882, 879, 878, 875, 869, 865, 860, 856, 848, 846, 841, 839, 830, 825, 820, 817, 809, 804, 799, 795, 786, 782, 776, 772, 766, 761, 758, 753, 745, 743, 738, 734, 728, 725, 721, 715, 706, 700, 697, 692, 681, 676, 671, 667, 656, 650, 647, 642, 632, 628, 625, 623, 615, 610, 608, 605, 598, 595, 592, 590, 585, 582, 580, 576, 570, 562, 561, 555, 548, 544, 539, 534, 525, 517, 513, 506, 492, 487, 481, 472, 460, 452, 445, 437, 424, 412, 403, 397, 367, 350, 331, 313, 276, 258, 241, 226, 203, 196, 191, 186, 179, 177, 174, 173, 169, 168, 165, 164, 160, 158, 155, 151, 143, 141, 137, 132, 123, 120, 117, 114, 111, 110, 109, 108, 106, 105, 105, 104, 103, 101, 101, 100, 100, 99, 99, 99, 98, 98, 98, 98, 98, 98, 98, 98, 98, 98, 98]"
"Trust","Teilnehmer A hat Ihnen 2 Punkte übermittelt.","Payback","1","undefined","7","0","2","60","1080","361","5","1","2148","0","legacy","[11, 21, 31, 41, 51, 61, 71, 81, 91, 101, 111, 121, 131, 141, 151, 161, 171, 181, 191, 201, 211, 221, 231, 241, 251, 261, 271, 281, 291, 301, 311, 321, 331, 341, 351, 361, 371, 381, 391, 401, 411, 421, 431, 441, 451, 461, 471, 481, 491, 501, 511, 521, 531, 541, 551, 561, 571, 581, 591, 601, 611, 621, 631, 641, 651, 661, 671, 681, 691, 701, 711, 721, 731, 741, 751, 761, 771, 781, 791, 801, 811, 821, 831, 841, 851, 861, 871, 881, 891, 901, 911, 921, 931, 941, 951, 961, 971, 981, 991, 1001, 1011, 1021, 1031, 1041, 1051, 1061, 1071, 1081, 1091, 1101, 1111, 1121, 1131, 1141, 1151, 1161, 1171, 1181, 1191, 1201, 1211, 1221, 1231, 1241, 1251, 1261, 1271, 1281, 1291, 1301, 1311, 1321, 1331, 1341, 1351, 1361, 1371, 1381, 1391, 1401, 1411, 1421, 1431, 1441, 1451, 1461, 1471, 1481, 1491, 1501, 1511, 1521, 1531, 1541, 1551, 1561, 1571, 1581, 1591, 1601, 1611, 1621, 1631, 1641, 1651, 1661, 1671, 1681, 1691, 1701, 1711, 1721, 1731, 1741, 1751, 1761, 1771, 1781, 1791, 1801, 1811, 1821, 1831, 1841, 1851, 1861, 1871, 1881, 1891, 1901, 1911, 1921, 1931, 1941, 1951, 1961, 1971, 1981, 1991, 2001, 2011, 2021, 2031, 2041, 2051, 2061, 2071, 2081, 2091, 2101, 2111, 2121, 2131, 2141]","1126","1920","[960, 960, 960, 960, 960, 960, 960, 960, 960, 960, 960, 960, 960, 960, 960, 960, 960, 959, 959, 959, 959, 959, 959, 959, 957, 953, 948, 942, 934, 917, 910, 904, 903, 895, 893, 891, 889, 888, 887, 887, 887, 884, 883, 880, 880, 877, 875, 873, 871, 866, 863, 860, 859, 854, 854, 851, 850, 844, 843, 841, 839, 836, 835, 832, 830, 826, 824, 821, 820, 814, 811, 809, 805, 798, 794, 792, 786, 780, 776, 772, 768, 763, 758, 755, 752, 742, 738, 734, 729, 723, 722, 719, 715, 709, 705, 703, 699, 692, 688, 686, 682, 678, 674, 670, 667, 660, 657, 653, 648, 640, 635, 631, 628, 619, 612, 606, 601, 588, 583, 576, 572, 564, 559, 554, 550, 539, 534, 525, 520, 508, 502, 497, 493, 482, 479, 476, 470, 462, 459, 454, 448, 440, 436, 431, 429, 423, 418, 415, 412, 406, 404, 400, 398, 392, 389, 387, 383, 377, 374, 369, 365, 358, 356, 352, 350, 345, 341, 339, 336, 332, 330, 328, 326, 322, 319, 318, 316, 313, 312, 310, 309, 305, 304, 302, 301, 299, 297, 295, 295, 292, 290, 289, 289, 286, 284, 283, 283, 280, 280, 279, 278, 277, 277, 277, 276, 275, 274, 274, 274, 274, 274, 274, 274, 274]","[1010, 1010, 1010, 1010, 1010, 1010, 1010, 1010, 1010, 1010, 1010, 1010, 1009, 1007, 1005, 1004, 1004, 1003, 1003, 1003, 1003, 1003, 1002, 1002, 1000, 995, 990, 985, 980, 965, 961, 956, 954, 945, 942, 938, 937, 934, 933, 931, 931, 927, 923, 920, 918, 913, 911, 907, 905, 898, 894, 890, 887, 881, 878, 875, 873, 866, 864, 862, 860, 855, 853, 848, 846, 841, 837, 833, 831, 824, 818, 813, 805, 793, 784, 777, 768, 756, 750, 743, 736, 723, 714, 707, 699, 682, 673, 666, 658, 642, 635, 628, 619, 606, 599, 594, 588, 575, 568, 564, 559, 551, 546, 541, 536, 528, 521, 518, 511, 502, 495, 490, 486, 471, 463, 454, 448, 430, 423, 415, 410, 399, 393, 388, 382, 367, 359, 350, 342, 327, 321, 315, 307, 294, 289, 284, 276, 265, 259, 252, 245, 235, 232, 229, 226, 220, 218, 215, 211, 206, 205, 202, 200, 194, 192, 188, 186, 180, 178, 175, 172, 166, 163, 162, 159, 154, 152, 148, 146, 141, 139, 137, 135, 131, 129, 127, 126, 122, 120, 119, 117, 114, 112, 111, 110, 108, 107, 107, 106, 105, 105, 105, 105, 104, 103, 103, 103, 102, 102, 102, 101, 101, 101, 101, 101, 101, 101, 101, 101, 101, 101, 101, 101, 101]"
"Trust","Teilnehmer A hat Ihnen 2 Punkte übermittelt.","Payback","1","undefined","8","0","2","60","1080","291","5","1","1390","0","legacy","[11, 21, 31, 41, 51, 61, 71, 81, 91, 101, 111, 121, 131, 141, 151, 161, 171, 181, 191, 201, 211, 221, 231, 241, 251, 261, 271, 281, 291, 301, 311, 321, 331, 341, 351, 361, 371, 381, 391, 401, 411, 421, 431, 441, 451, 461, 471, 481, 491, 501, 511, 521, 531, 541, 551, 561, 571, 581, 591, 601, 611, 621, 631, 641, 651, 661, 671, 681, 691, 701, 711, 721, 731, 741, 751, 761, 771, 781, 791, 801, 811, 821, 831, 841, 851, 861, 871, 881, 891, 901, 911, 921, 931, 941, 951, 961, 971, 981, 991, 1001, 1011, 1021, 1031, 1041, 1051, 1061, 1071, 1081, 1091, 1101, 1111, 1121, 1131, 1141, 1151, 1161, 1171, 1181, 1191, 1201, 1211, 1221, 1231, 1241, 1251, 1261, 1271, 1281, 1291, 1301, 1311, 1321, 1331, 1341, 1351, 1361, 1371, 1381]","1126","1920","[960, 960, 960, 960, 960, 959, 958, 957, 957, 956, 956, 955, 955, 955, 952, 951, 951, 951, 949, 948, 946, 944, 937, 931, 925, 916, 895, 879, 861, 841, 804, 792, 783, 775, 764, 760, 756, 750, 742, 738, 734, 728, 718, 712, 707, 701, 688, 679, 674, 667, 654, 648, 645, 639, 625, 618, 610, 607, 598, 594, 588, 583, 571, 563, 560, 554, 546, 543, 537, 534, 521, 518, 511, 506, 497, 491, 487, 484, 480, 478, 478, 478, 476, 474, 471, 465, 450, 443, 433, 425, 410, 403, 398, 392, 382, 378, 373, 369, 361, 357, 355, 349, 341, 337, 330, 325, 313, 306, 302, 296, 287, 281, 279, 275, 272, 271, 270, 269, 267, 266, 266, 266, 265, 264, 264, 264, 263, 263, 263, 263, 261, 261, 261, 261, 261, 261, 261, 261]","[1010, 1010, 1010, 1010, 1010, 1010, 1010, 1010, 1010, 1010, 1010, 1009, 1009, 1007, 1005, 1004, 1004, 1003, 1002, 1001, 1000, 999, 995, 991, 987, 980, 963, 947, 932, 909, 873, 859, 851, 844, 830, 825, 819, 810, 798, 792, 785, 777, 764, 758, 752, 743, 725, 718, 709, 700, 686, 679, 676, 668, 654, 645, 638, 633, 618, 615, 608, 601, 587, 578, 575, 567, 557, 557, 552, 542, 528, 520, 510, 504, 488, 478, 469, 459, 443, 440, 432, 426, 411, 402, 394, 385, 365, 356, 345, 335, 317, 308, 301, 293, 276, 267, 257, 250, 235, 229, 220, 214, 198, 190, 181, 174, 159, 151, 145, 139, 127, 121, 119, 116, 113, 113, 111, 110, 109, 108, 108, 108, 107, 107, 107, 107, 106, 105, 105, 105, 104, 104, 104, 104, 104, 104, 104, 104]"
"Promise","Wie oft werden Sie die Hälfte zurückgeben?","Promise","0","undefined","8","0","3","60","1080","361","5","2","2112","0","legacy","[11, 21, 31, 41, 51, 61, 71, 81, 91, 101, 111, 121, 131, 141, 151, 161, 171, 181, 191, 201, 211, 221, 231, 241, 251, 261, 271, 281, 291, 301, 311, 321, 331, 341, 351, 361, 371, 381, 391, 401, 411, 421, 431, 441, 451, 461, 471, 481, 491, 501, 511, 521, 531, 541, 551, 561, 571, 581, 591, 601, 611, 621, 631, 641, 651, 661, 671, 681, 691, 701, 711, 721, 731, 741, 751, 761, 771, 781, 791, 801, 811, 821, 831, 841, 851, 861, 871, 881, 891, 901, 911, 921, 931, 941, 951, 961, 971, 981, 991, 1001, 1011, 1021, 1031, 1041, 1051, 1061, 1071, 1081, 1091, 1101, 1111, 1121, 1131, 1141, 1151, 1161, 1171, 1181, 1191, 1201, 1211, 1221, 1231, 1241, 1251, 1261, 1271, 1281, 1291, 1301, 1311, 1321, 1331, 1341, 1351, 1361, 1371, 1381, 1391, 1401, 1411, 1421, 1431, 1441, 1451, 1461, 1471, 1481, 1491, 1501, 1511, 1521, 1531, 1541, 1551, 1561, 1571, 1581, 1591, 1601, 1611, 1621, 1631, 1641, 1651, 1661, 1671, 1681, 1691, 1701, 1711, 1721, 1731, 1741, 1751, 1761, 1771, 1781, 1791, 1801, 1811, 1821, 1831, 1841, 1851, 1861, 1871, 1881, 1891, 1901, 1911, 1921, 1931, 1941, 1951, 1961, 1971, 1981, 1991, 2001, 2011, 2021, 2031, 2041, 2051, 2061, 2071, 2081, 2091, 2101, 2111]","1126","1920","[960, 960, 960, 960, 960, 960, 960, 960, 960, 960, 960, 960, 960, 960, 960, 959, 959, 959, 959, 959, 959, 960, 960, 961, 961, 961, 961, 965, 965, 968, 969, 973, 974, 974, 975, 976, 978, 978, 978, 978, 979, 979, 979, 980, 980, 981, 981, 983, 983, 985, 985, 988, 989, 990, 992, 995, 997, 1000, 1002, 1009, 1013, 1015, 1018, 1023, 1029, 1031, 1034, 1040, 1042, 1043, 1044, 1048, 1051, 1053, 1053, 1059, 1063, 1064, 1064, 1069, 1072, 1074, 1076, 1081, 1083, 1085, 1086, 1091, 1094, 1097, 1100, 1110, 1116, 1121, 1126, 1136, 1142, 1148, 1154, 1166, 1171, 1177, 1185, 1200, 1207, 1217, 1225, 1239, 1247, 1255, 1262, 1276, 1285, 1293, 1299, 1312, 1316, 1319, 1324, 1332, 1337, 1341, 1344, 1355, 1360, 1364, 1369, 1377, 1380, 1385, 1389, 1396, 1401, 1406, 1411, 1424, 1429, 1434, 1438, 1448, 1454, 1459, 1462, 1473, 1481, 1488, 1495, 1508, 1514, 1522, 1527, 1536, 1537, 1540, 1546, 1552, 1555, 1557, 1562, 1567, 1570, 1575, 1579, 1587, 1591, 1596, 1601, 1608, 1612, 1618, 1622, 1626, 1631, 1633, 1634, 1639, 1641, 1643, 1645, 1650, 1652, 1654, 1657, 1660, 1661, 1663, 1664, 1667, 1667, 1670, 1670, 1670, 1670, 1670, 1670, 1670, 1670, 1670, 1670, 1670, 1670, 1670, 1670, 1670, 1670, 1670, 1670, 1670, 1670, 1670, 1670]","[1010, 1010, 1010, 1010, 1010, 1010, 1010, 1010, 1010, 1010, 1010, 1010, 1010, 1010, 1010, 1009, 1008, 1006, 1005, 1003, 1002, 1001, 1000, 999, 998, 997, 995, 989, 986, 982, 978, 966, 957, 952, 944, 924, 913, 902, 889, 872, 867, 862, 858, 850, 845, 841, 837, 829, 828, 824, 822, 817, 816, 813, 811, 806, 803, 799, 796, 786, 780, 776, 770, 761, 753, 749, 745, 735, 733, 730, 725, 715, 710, 703, 696, 683, 675, 669, 665, 656, 651, 648, 643, 635, 632, 627, 624, 613, 608, 602, 597, 584, 576, 570, 562, 545, 536, 527, 520, 501, 492, 483, 471, 448, 438, 426, 414, 393, 383, 371, 361, 341, 330, 321, 314, 298, 294, 289, 283, 274, 269, 265, 261, 254, 251, 249, 245, 237, 235, 231, 228, 223, 219, 214, 211, 200, 197, 193, 189, 182, 178, 174, 172, 167, 162, 159, 158, 153, 152, 150, 148, 146, 144, 143, 140, 139, 137, 136, 135, 134, 132, 131, 130, 128, 127, 126, 123, 121, 121, 118, 118, 116, 114, 114, 113, 111, 110, 109, 108, 106, 105, 105, 103, 103, 102, 102, 102, 101, 101, 99, 99, 99, 99, 99, 99, 99, 99, 99, 99, 99, 99, 99, 99, 99, 99, 99, 99, 99, 99, 99, 99]"
"Trust","Teilnehmer A hat Ihnen 2 Punkte übermittelt.","Payback","0","undefined","9","0","3","60","1080","261","10","2","1950","0","legacy","[11, 21, 31, 41, 51, 61, 71, 81, 91, 101, 111, 121, 131, 141, 151, 161, 171, 181, 191, 201, 211, 221, 231, 241, 251, 261, 271, 281, 291, 301, 311, 321, 331, 341, 351, 361, 371, 381, 391, 401, 411, 421, 431, 441, 451, 461, 471, 481, 491, 501, 511, 521, 531, 541, 551, 561, 571, 581, 591, 601, 611, 621, 631, 641, 651, 661, 671, 681, 691, 701, 711, 721, 731, 741, 751, 761, 771, 781, 791, 801, 811, 821, 831, 841, 851, 861, 871, 881, 891, 901, 911, 921, 931, 941, 951, 961, 971, 981, 991, 1001, 1011, 1021, 1031, 1041, 1051, 1061, 1071, 1081, 1091, 1101, 1111, 1121, 1131, 1141, 1151, 1161, 1171, 1181, 1191, 1201, 1211, 1221, 1231, 1241, 1251, 1261, 1271, 1281, 1291, 1301, 1311, 1321, 1331, 1341, 1351, 1361, 1371, 1381, 1391, 1401, 1411, 1421, 1431, 1441, 1451, 1461, 1471, 1481, 1491, 1501, 1511, 1521, 1531, 1541, 1551, 1561, 1571, 1581, 1591, 1601, 1611, 1621, 1631, 1641, 1651, 1661, 1671, 1681, 1691, 1701, 1711, 1721, 1731, 1741, 1751, 1761, 1771, 1781, 1791, 1801, 1811, 1821, 1831, 1841, 1851, 1861, 1871, 1881, 1891, 1901, 1911, 1921, 1931, 1941]","1126","1920","[960, 960, 960, 960, 960, 960, 960, 960, 960, 960, 960, 960, 961, 961, 964, 966, 967, 969, 973, 978, 980, 983, 993, 999, 1005, 1013, 1026, 1036, 1049, 1065, 1092, 1100, 1109, 1117, 1132, 1134, 1138, 1140, 1144, 1147, 1153, 1160, 1177, 1185, 1192, 1200, 1214, 1221, 1225, 1229, 1235, 1239, 1243, 1247, 1255, 1257, 1262, 1267, 1273, 1277, 1281, 1284, 1294, 1296, 1298, 1302, 1307, 1310, 1313, 1314, 1321, 1322, 1325, 1325, 1329, 1331, 1333, 1334, 1337, 1339, 1340, 1342, 1344, 1346, 1348, 1349, 1353, 1356, 1357, 1360, 1364, 1366, 1369, 1369, 1373, 1376, 1380, 1385, 1392, 1400, 1407, 1412, 1420, 1425, 1432, 1438, 1450, 1457, 1459, 1462, 1471, 1473, 1474, 1478, 1480, 1481, 1483, 1484, 1487, 1487, 1489, 1490, 1492, 1492, 1495, 1496, 1499, 1502, 1503, 1505, 1511, 1513, 1517, 1520, 1532, 1539, 1547, 1554, 1572, 1580, 1585, 1591, 1603, 1610, 1614, 1619, 1630, 1637, 1642, 1647, 1654, 1656, 1659, 1662, 1668, 1673, 1673, 1676, 1680, 1682, 1684, 1686, 1693, 1697, 1698, 1701, 1704, 1704, 1705, 1706, 1707, 1708, 1708, 1709, 1711, 1713, 1714, 1718, 1725, 1727, 1728, 1729, 1730, 1731, 1731, 1731, 1731, 1731, 1731, 1731, 1731, 1731, 1731, 1731]","[1010, 1010, 1010, 1010, 1010, 1010, 1010, 1010, 1010, 1010, 1010, 1010, 1010, 1010, 1007, 1004, 1001, 999, 994, 989, 985, 982, 968, 959, 949, 936, 908, 889, 867, 837, 788, 773, 759, 749, 729, 727, 723, 719, 714, 710, 704, 694, 676, 665, 659, 649, 635, 627, 622, 616, 606, 603, 597, 589, 576, 571, 564, 553, 540, 534, 529, 523, 510, 506, 501, 496, 487, 482, 478, 476, 467, 465, 461, 459, 453, 451, 449, 447, 443, 441, 439, 436, 434, 432, 430, 429, 425, 423, 420, 417, 412, 409, 406, 405, 399, 397, 392, 387, 378, 371, 363, 357, 349, 345, 339, 334, 324, 320, 318, 315, 311, 308, 307, 304, 302, 301, 300, 300, 297, 296, 295, 294, 292, 292, 290, 289, 286, 284, 283, 281, 277, 274, 271, 267, 258, 253, 247, 239, 227, 222, 217, 213, 202, 198, 196, 193, 188, 183, 179, 178, 174, 173, 171, 169, 164, 161, 161, 159, 156, 154, 153, 152, 146, 145, 144, 142, 140, 140, 140, 140, 139, 139, 138, 138, 136, 135, 134, 131, 123, 121, 120, 119, 117, 117, 116, 116, 116, 116, 116, 116, 116, 116, 116, 116]"
"Trust","Teilnehmer A hat Ihnen 2 Punkte übermittelt.","Payback","1","undefined","10","0","3","60","1080","311","5","1","1117","0","legacy","[11, 21, 31, 41, 51, 61, 71, 81, 91, 101, 111, 121, 131, 141, 151, 161, 171, 181, 191, 201, 211, 221, 231, 241, 251, 261, 271, 281, 291, 301, 311, 321, 331, 341, 351, 361, 371, 381, 391, 401, 411, 421, 431, 441, 451, 461, 471, 481, 491, 501, 511, 521, 531, 541, 551, 561, 571, 581, 591, 601, 611, 621, 631, 641, 651, 661, 671, 681, 691, 701, 711, 721, 731, 741, 751, 761, 771, 781, 791, 801, 811, 821, 831, 841, 851, 861, 871, 881, 891, 901, 911, 921, 931, 941, 951, 961, 971, 981, 991, 1001, 1011, 1021, 1031, 1041, 1051, 1061, 1071, 1081, 1091, 1101, 1111]","1126","1920","[960, 960, 960, 960, 960, 960, 960, 960, 960, 960, 960, 960, 960, 960, 960, 960, 960, 960, 960, 960, 960, 960, 960, 960, 960, 960, 955, 950, 941, 931, 889, 846, 795, 744, 634, 578, 525, 478, 410, 394, 388, 382, 379, 378, 377, 377, 376, 375, 372, 369, 365, 360, 357, 353, 341, 335, 326, 316, 304, 299, 295, 294, 289, 289, 286, 284, 280, 276, 274, 270, 264, 262, 259, 258, 254, 249, 246, 245, 240, 239, 236, 235, 231, 230, 229, 227, 225, 225, 224, 223, 222, 222, 220, 219, 219, 218, 216, 216, 216, 215, 215, 214, 214, 214, 214, 213, 213, 213, 213, 213, 213]","[1010, 1010, 1010, 1010, 1010, 1010, 1010, 1010, 1010, 1010, 1010, 1010, 1010, 1010, 1010, 1010, 1010, 1010, 1010, 1010, 1010, 1010, 1010, 1009, 1008, 1007, 1001, 995, 988, 977, 936, 897, 857, 810, 717, 672, 631, 599, 550, 534, 524, 514, 502, 496, 492, 486, 476, 470, 463, 457, 447, 439, 432, 422, 399, 385, 368, 352, 329, 323, 317, 314, 306, 304, 301, 294, 281, 273, 266, 260, 243, 235, 229, 225, 216, 209, 203, 200, 188, 184, 178, 172, 161, 157, 154, 150, 146, 145, 144, 142, 139, 136, 134, 130, 126, 123, 121, 120, 116, 114, 113, 112, 110, 109, 109, 108, 108, 108, 108, 108, 108]"
"Trust","Teilnehmer A hat Ihnen 2 Punkte übermittelt.","Payback","0","undefined","11","0","3","60","1080","351","10","2","1485","0","legacy","[11, 21, 31, 41, 51, 61, 71, 81, 91, 101, 111, 121, 131, 141, 151, 161, 171, 181, 191, 201, 211, 221, 231, 241, 251, 261, 271, 281, 291, 301, 311, 321, 331, 341, 351, 361, 371, 381, 391, 401, 411, 421, 431, 441, 451, 461, 471, 481, 491, 501, 511, 521, 531, 541, 551, 561, 571, 581, 591, 601, 611, 621, 631, 641, 651, 661, 671, 681, 691, 701, 711, 721, 731, 741, 751, 761, 771, 781, 791, 801, 811, 821, 831, 841, 851, 861, 871, 881, 891, 901, 911, 921, 931, 941, 951, 961, 971, 981, 991, 1001, 1011, 1021, 1031, 1041, 1051, 1061, 1071, 1081, 1091, 1101, 1111, 1121, 1131, 1141, 1151, 1161, 1171, 1181, 1191, 1201, 1211, 1221, 1231, 1241, 1251, 1261, 1271, 1281, 1291, 1301, 1311, 1321, 1331, 1341, 1351, 1361, 1371, 1381, 1391, 1401, 1411, 1421, 1431, 1441, 1451, 1461, 1471, 1481]","1126","1920","[960, 960, 960, 960, 960, 960, 960, 960, 960, 960, 960, 960, 958, 957, 957, 957, 957, 957, 957, 957, 957, 957, 957, 956, 956, 956, 955, 957, 960, 961, 965, 966, 968, 971, 982, 991, 1002, 1016, 1055, 1074, 1095, 1114, 1137, 1143, 1148, 1152, 1156, 1159, 1162, 1165, 1171, 1175, 1179, 1182, 1195, 1202, 1208, 1215, 1227, 1236, 1243, 1248, 1259, 1265, 1270, 1277, 1288, 1297, 1303, 1309, 1326, 1334, 1344, 1353, 1376, 1393, 1414, 1431, 1462, 1472, 1483, 1495, 1516, 1525, 1535, 1543, 1557, 1565, 1572, 1576, 1582, 1584, 1585, 1589, 1592, 1593, 1594, 1595, 1596, 1598, 1598, 1600, 1603, 1607, 1610, 1614, 1623, 1629, 1636, 1639, 1650, 1655, 1660, 1663, 1670, 1673, 1675, 1677, 1681, 1682, 1683, 1684, 1684, 1685, 1685, 1685, 1686, 1686, 1686, 1686, 1686, 1686, 1686, 1686, 1686, 1686, 1686, 1686, 1686, 1686, 1686, 1686, 1686, 1686, 1686, 1686, 1686, 1686]","[1010, 1010, 1010, 1010, 1010, 1010, 1010, 1010, 1010, 1010, 1010, 1010, 1010, 1010, 1010, 1010, 1010, 1010, 1010, 1010, 1010, 1010, 1010, 1010, 1010, 1010, 1007, 1001, 993, 987, 973, 966, 958, 947, 911, 888, 864, 835, 761, 726, 698, 672, 641, 629, 622, 616, 610, 607, 603, 597, 586, 580, 573, 565, 547, 537, 526, 517, 498, 488, 479, 469, 453, 444, 434, 426, 410, 401, 393, 387, 370, 365, 357, 348, 328, 317, 305, 294, 273, 268, 262, 255, 242, 237, 229, 223, 212, 207, 202, 200, 194, 193, 191, 188, 185, 185, 183, 182, 181, 180, 180, 179, 177, 174, 173, 169, 163, 158, 154, 150, 143, 139, 136, 135, 130, 130, 127, 127, 123, 123, 123, 122, 122, 121, 121, 121, 121, 121, 121, 121, 121, 121, 121, 121, 121, 121, 121, 121, 121, 121, 121, 121, 121, 121, 121, 121, 121, 121]"
"Promise","Wie oft werden Sie die Hälfte zurückgeben?","Promise","0","undefined","11","0","4","60","1080","221","10","2","1240","0","legacy","[11, 21, 31, 41, 51, 61, 71, 81, 91, 101, 111, 121, 131, 141, 151, 161, 171, 181, 191, 201, 211, 221, 231, 241, 251, 261, 271, 281, 291, 301, 311, 321, 331, 341, 351, 361, 371, 381, 391, 401, 411, 421, 431, 441, 451, 461, 471, 481, 491, 501, 511, 521, 531, 541, 551, 561, 571, 581, 591, 601, 611, 621, 631, 641, 651, 661, 671, 681, 691, 701, 711, 721, 731, 741, 751, 761, 771, 781, 791, 801, 811, 821, 831, 841, 851, 861, 871, 881, 891, 901, 911, 921, 931, 941, 951, 961, 971, 981, 991, 1001, 1011, 1021, 1031, 1041, 1051, 1061, 1071, 1081, 1091, 1101, 1111, 1121, 1131, 1141, 1151, 1161, 1171, 1181, 1191, 1201, 1211, 1221, 1231]","1126","1920","[960, 960, 960, 960, 960, 960, 960, 960, 960, 960, 960, 960, 960, 960, 960, 963, 967, 969, 973, 983, 989, 995, 1004, 1030, 1049, 1068, 1082, 1116, 1132, 1147, 1160, 1186, 1202, 1214, 1224, 1253, 1262, 1272, 1282, 1296, 1302, 1308, 1312, 1324, 1328, 1332, 1335, 1346, 1351, 1355, 1360, 1370, 1374, 1381, 1386, 1398, 1404, 1411, 1416, 1428, 1433, 1437, 1443, 1454, 1460, 1465, 1475, 1490, 1499, 1506, 1512, 1522, 1528, 1533, 1539, 1551, 1558, 1565, 1573, 1589, 1597, 1606, 1613, 1628, 1635, 1643, 1651, 1667, 1672, 1679, 1681, 1685, 1687, 1688, 1690, 1692, 1693, 1694, 1695, 1696, 1696, 1696, 1696, 1696, 1696, 1696, 1696, 1696, 1696, 1696, 1696, 1697, 1697, 1697, 1698, 1698, 1698, 1698, 1698, 1698, 1698, 1698, 1698]","[1010, 1010, 1010, 1010, 1010, 1010, 1010, 1010, 1010, 1010, 1010, 1010, 1009, 1007, 1006, 997, 990, 982, 976, 959, 944, 925, 901, 841, 800, 763, 731, 659, 624, 589, 570, 519, 492, 470, 451, 414, 397, 385, 371, 353, 344, 335, 329, 313, 305, 299, 293, 279, 273, 269, 264, 257, 254, 250, 246, 237, 233, 230, 227, 221, 217, 215, 212, 206, 202, 198, 192, 181, 176, 172, 166, 160, 155, 152, 147, 139, 134, 129, 123, 109, 102, 97, 91, 81, 75, 70, 65, 58, 55, 53, 52, 50, 50, 50, 49, 48, 48, 48, 48, 48, 48, 48, 48, 48, 48, 48, 48, 48, 48, 48, 48, 48, 48, 48, 48, 48, 48, 48, 48, 48, 48, 48, 48]"
"Trust","Teilnehmer A hat Ihnen 2 Punkte übermittelt.","Payback","1","undefined","12","0","4","60","1080","151","5","1","1740","0","legacy","[11, 21, 31, 41, 51, 61, 71, 81, 91, 101, 111, 121, 131, 141, 151, 161, 171, 181, 191, 201, 211, 221, 231, 241, 251, 261, 271, 281, 291, 301, 311, 321, 331, 341, 351, 361, 371, 381, 391, 401, 411, 421, 431, 441, 451, 461, 471, 481, 491, 501, 511, 521, 531, 541, 551, 561, 571, 581, 591, 601, 611, 621, 631, 641, 651, 661, 671, 681, 691, 701, 711, 721, 731, 741, 751, 761, 771, 781, 791, 801, 811, 821, 831, 841, 851, 861, 871, 881, 891, 901, 911, 921, 931, 941, 951, 961, 971, 981, 991, 1001, 1011, 1021, 1031, 1041, 1051, 1061, 1071, 1081, 1091, 1101, 1111, 1121, 1131, 1141, 1151, 1161, 1171, 1181, 1191, 1201, 1211, 1221, 1231, 1241, 1251, 1261, 1271, 1281, 1291, 1301, 1311, 1321, 1331, 1341, 1351, 1361, 1371, 1381, 1391, 1401, 1411, 1421, 1431, 1441, 1451, 1461, 1471, 1481, 1491, 1501, 1511, 1521, 1531, 1541, 1551, 1561, 1571, 1581, 1591, 1601, 1611, 1621, 1631, 1641, 1651, 1661, 1671, 1681, 1691, 1701, 1711, 1721, 1731]","1126","1920","[960, 960, 960, 960, 960, 960, 960, 959, 957, 948, 942, 934, 924, 894, 880, 871, 862, 850, 846, 844, 842, 840, 839, 837, 836, 831, 829, 827, 822, 814, 811, 806, 802, 796, 792, 789, 787, 782, 779, 776, 772, 764, 759, 757, 753, 747, 744, 742, 739, 735, 731, 730, 728, 722, 719, 715, 710, 700, 696, 689, 685, 674, 669, 663, 660, 653, 651, 649, 645, 639, 637, 635, 633, 631, 630, 628, 625, 618, 614, 609, 602, 593, 588, 582, 575, 566, 562, 557, 553, 545, 543, 540, 538, 533, 530, 528, 526, 520, 516, 515, 511, 506, 500, 495, 490, 482, 478, 477, 473, 468, 464, 459, 455, 444, 439, 432, 427, 413, 407, 399, 391, 379, 374, 369, 364, 358, 355, 353, 349, 343, 339, 334, 328, 318, 312, 307, 303, 293, 288, 282, 279, 269, 264, 260, 257, 252, 250, 248, 246, 243, 242, 240, 239, 237, 236, 235, 235, 234, 234, 233, 232, 232, 231, 231, 231, 231, 231, 231, 231, 231, 231, 231, 231]","[1010, 1010, 1010, 1010, 1010, 1010, 1010, 1007, 1002, 989, 980, 970, 962, 941, 932, 925, 920, 911, 907, 905, 904, 901, 899, 897, 895, 887, 885, 882, 875, 864, 858, 852, 847, 834, 828, 823, 816, 806, 799, 794, 788, 776, 769, 766, 760, 751, 748, 744, 743, 737, 732, 729, 724, 715, 710, 705, 697, 686, 680, 674, 669, 658, 652, 646, 642, 632, 630, 624, 620, 611, 608, 605, 603, 599, 595, 591, 588, 577, 571, 564, 557, 547, 542, 534, 527, 515, 510, 504, 499, 491, 488, 483, 481, 475, 472, 469, 466, 459, 454, 452, 448, 437, 431, 426, 420, 410, 405, 403, 398, 392, 387, 381, 376, 362, 355, 347, 340, 319, 310, 301, 290, 271, 264, 252, 245, 229, 224, 217, 210, 196, 191, 185, 179, 166, 161, 157, 153, 146, 141, 137, 135, 128, 125, 122, 120, 115, 114, 113, 111, 108, 107, 106, 104, 103, 102, 101, 101, 100, 99, 98, 97, 97, 96, 96, 95, 95, 95, 95, 95, 95, 95, 95, 95]"
"Trust","Teilnehmer A hat Ihnen 2 Punkte übermittelt.","Payback","0","undefined","13","0","4","60","1080","341","10","2","1453","0","legacy","[11, 21, 31, 41, 51, 61, 71, 81, 91, 101, 111, 121, 131, 141, 151, 161, 171, 181, 191, 201, 211, 221, 231, 241, 251, 261, 271, 281, 291, 301, 311, 321, 331, 341, 351, 361, 371, 381, 391, 401, 411, 421, 431, 441, 451, 461, 471, 481, 491, 501, 511, 521, 531, 541, 551, 561, 571, 581, 591, 601, 611, 621, 631, 641, 651, 661, 671, 681, 691, 701, 711, 721, 731, 741, 751, 761, 771, 781, 791, 801, 811, 821, 831, 841, 851, 861, 871, 881, 891, 901, 911, 921, 931, 941, 951, 961, 971, 981, 991, 1001, 1011, 1021, 1031, 1041, 1051, 1061, 1071, 1081, 1091, 1101, 1111, 1121, 1131, 1141, 1151, 1161, 1171, 1181, 1191, 1201, 1211, 1221, 1231, 1241, 1251, 1261, 1271, 1281, 1291, 1301, 1311, 1321, 1331, 1341, 1351, 1361, 1371, 1381, 1391, 1401, 1411, 1421, 1431, 1441, 1451]","1126","1920","[960, 960, 960, 960, 960, 960, 960, 960, 960, 960, 960, 960, 960, 960, 960, 960, 960, 960, 960, 960, 962, 962, 965, 968, 972, 977, 986, 991, 999, 1005, 1019, 1026, 1033, 1043, 1064, 1074, 1091, 1104, 1124, 1132, 1137, 1143, 1153, 1158, 1162, 1166, 1179, 1186, 1192, 1197, 1214, 1224, 1235, 1245, 1263, 1271, 1278, 1283, 1290, 1292, 1294, 1296, 1299, 1300, 1303, 1305, 1312, 1315, 1318, 1322, 1330, 1334, 1341, 1345, 1353, 1356, 1360, 1362, 1367, 1372, 1375, 1377, 1384, 1385, 1388, 1391, 1396, 1400, 1404, 1407, 1417, 1422, 1428, 1436, 1450, 1458, 1467, 1480, 1501, 1511, 1523, 1535, 1559, 1570, 1583, 1592, 1606, 1612, 1616, 1621, 1627, 1630, 1631, 1634, 1638, 1640, 1642, 1643, 1647, 1648, 1649, 1649, 1651, 1652, 1652, 1653, 1655, 1656, 1657, 1659, 1661, 1664, 1666, 1666, 1668, 1668, 1669, 1669, 1669, 1669, 1669, 1669, 1669, 1669, 1669]","[1012, 1012, 1013, 1013, 1013, 1013, 1013, 1013, 1013, 1013, 1013, 1013, 1013, 1013, 1013, 1013, 1013, 1013, 1013, 1013, 1013, 1013, 1011, 1009, 1007, 1003, 996, 992, 986, 979, 964, 955, 942, 926, 890, 872, 844, 822, 782, 769, 756, 745, 729, 721, 714, 710, 695, 690, 683, 677, 660, 650, 640, 629, 611, 604, 596, 592, 583, 579, 575, 571, 565, 561, 556, 550, 536, 532, 524, 516, 502, 495, 487, 481, 467, 463, 458, 452, 442, 436, 431, 425, 414, 412, 408, 402, 391, 385, 379, 371, 355, 349, 339, 330, 312, 303, 293, 280, 257, 245, 230, 218, 181, 167, 149, 135, 116, 110, 105, 100, 92, 88, 87, 83, 79, 76, 75, 75, 73, 73, 72, 72, 72, 72, 72, 72, 72, 72, 70, 69, 69, 66, 66, 65, 64, 64, 64, 64, 64, 64, 64, 64, 64, 64, 64]"
"Trust","Teilnehmer A hat Ihnen 2 Punkte übermittelt.","Payback","1","undefined","14","0","4","60","1080","341","5","1","1900","0","legacy","[11, 21, 31, 41, 51, 61, 71, 81, 91, 101, 111, 121, 131, 141, 151, 161, 171, 181, 191, 201, 211, 221, 231, 241, 251, 261, 271, 281, 291, 301, 311, 321, 331, 341, 351, 361, 371, 381, 391, 401, 411, 421, 431, 441, 451, 461, 471, 481, 491, 501, 511, 521, 531, 541, 551, 561, 571, 581, 591, 601, 611, 621, 631, 641, 651, 661, 671, 681, 691, 701, 711, 721, 731, 741, 751, 761, 771, 781, 791, 801, 811, 821, 831, 841, 851, 861, 871, 881, 891, 901, 911, 921, 931, 941, 951, 961, 971, 981, 991, 1001, 1011, 1021, 1031, 1041, 1051, 1061, 1071, 1081, 1091, 1101, 1111, 1121, 1131, 1141, 1151, 1161, 1171, 1181, 1191, 1201, 1211, 1221, 1231, 1241, 1251, 1261, 1271, 1281, 1291, 1301, 1311, 1321, 1331, 1341, 1351, 1361, 1371, 1381, 1391, 1401, 1411, 1421, 1431, 1441, 1451, 1461, 1471, 1481, 1491, 1501, 1511, 1521, 1531, 1541, 1551, 1561, 1571, 1581, 1591, 1601, 1611, 1621, 1631, 1641, 1651, 1661, 1671, 1681, 1691, 1701, 1711, 1721, 1731, 1741, 1751, 1761, 1771, 1781, 1791, 1801, 1811, 1821, 1831, 1841, 1851, 1861, 1871, 1881, 1891]","1126","1920","[960, 960, 960, 960, 960, 960, 960, 960, 960, 960, 960, 960, 960, 960, 960, 960, 959, 957, 955, 954, 952, 948, 944, 940, 935, 919, 906, 897, 886, 866, 854, 845, 837, 819, 814, 807, 803, 794, 790, 787, 783, 776, 773, 769, 766, 758, 754, 748, 744, 738, 734, 731, 728, 720, 718, 714, 711, 704, 700, 696, 692, 684, 679, 676, 673, 665, 660, 658, 653, 645, 644, 640, 635, 628, 624, 620, 615, 605, 601, 596, 592, 580, 573, 565, 557, 540, 527, 518, 511, 496, 490, 482, 474, 458, 449, 439, 430, 415, 407, 398, 392, 380, 373, 367, 361, 346, 337, 330, 322, 305, 296, 289, 280, 262, 257, 250, 241, 230, 223, 219, 216, 210, 206, 203, 199, 193, 190, 186, 180, 173, 169, 166, 163, 158, 155, 154, 153, 152, 151, 150, 150, 150, 150, 150, 150, 149, 149, 149, 149, 149, 149, 149, 149, 149, 149, 149, 149, 149, 149, 149, 149, 149, 149, 149, 149, 149, 149, 149, 149, 149, 149, 149, 149, 149, 149, 149, 149, 149, 149, 149, 149, 149, 149, 149, 149, 149, 149, 149, 149]","[1010, 1010, 1010, 1010, 1010, 1010, 1010, 1010, 1010, 1010, 1010, 1010, 1010, 1010, 1010, 1010, 1010, 1010, 1009, 1009, 1007, 1004, 1003, 1001, 997, 988, 982, 978, 974, 961, 954, 949, 943, 935, 931, 927, 925, 916, 912, 910, 905, 896, 893, 887, 882, 869, 863, 854, 850, 840, 835, 831, 828, 818, 813, 810, 805, 795, 790, 784, 778, 764, 758, 751, 745, 731, 725, 720, 714, 702, 697, 691, 685, 671, 664, 657, 649, 637, 632, 627, 620, 604, 596, 586, 576, 554, 540, 530, 518, 504, 499, 491, 485, 471, 463, 454, 446, 427, 418, 411, 404, 388, 379, 373, 362, 346, 335, 327, 318, 300, 292, 285, 277, 262, 257, 250, 241, 227, 220, 216, 212, 204, 199, 194, 187, 174, 166, 158, 149, 130, 123, 114, 107, 95, 89, 86, 83, 77, 75, 74, 72, 70, 69, 68, 68, 67, 67, 67, 67, 67, 67, 67, 67, 67, 67, 67, 67, 67, 67, 67, 67, 67, 67, 67, 67, 67, 67, 67, 67, 67, 67, 67, 67, 67, 67, 67, 67, 67, 67, 67, 67, 67, 67, 67, 67, 67, 67, 67, 67]"
"Promise","Wie oft werden Sie die Hälfte zurückgeben?","Promise","1","undefined","14","0","5","60","1080","251","5","1","1526","0","legacy","[11, 21, 31, 41, 51, 61, 71, 81, 91, 101, 111, 121, 131, 141, 151, 161, 171, 181, 191, 201, 211, 221, 231, 241, 251, 261, 271, 281, 291, 301, 311, 321, 331, 341, 351, 361, 371, 381, 391, 401, 411, 421, 431, 441, 451, 461, 471, 481, 491, 501, 511, 521, 531, 541, 551, 561, 571, 581, 591, 601, 611, 621, 631, 641, 651, 661, 671, 681, 691, 701, 711, 721, 731, 741, 751, 761, 771, 781, 791, 801, 811, 821, 831, 841, 851, 861, 871, 881, 891, 901, 911, 921, 931, 941, 951, 961, 971, 981, 991, 1001, 1011, 1021, 1031, 1041, 1051, 1061, 1071, 1081, 1091, 1101, 1111, 1121, 1131, 1141, 1151, 1161, 1171, 1181, 1191, 1201, 1211, 1221, 1231, 1241, 1251, 1261, 1271, 1281, 1291, 1301, 1311, 1321, 1331, 1341, 1351, 1361, 1371, 1381, 1391, 1401, 1411, 1421, 1431, 1441, 1451, 1461, 1471, 1481, 1491, 1501, 1511, 1521]","1126","1920","[960, 960, 958, 958, 958, 956, 949, 947, 942, 938, 929, 925, 919, 916, 912, 909, 908, 906, 903, 900, 899, 896, 890, 885, 880, 871, 852, 841, 833, 820, 798, 791, 781, 774, 761, 753, 746, 739, 723, 716, 708, 701, 690, 685, 679, 672, 660, 652, 644, 637, 621, 616, 609, 605, 592, 585, 581, 576, 568, 563, 557, 552, 542, 536, 531, 526, 516, 510, 504, 499, 491, 488, 483, 480, 473, 470, 469, 466, 459, 455, 451, 447, 434, 429, 421, 413, 396, 385, 375, 362, 340, 328, 318, 307, 288, 284, 277, 275, 265, 261, 259, 255, 251, 250, 248, 246, 245, 244, 243, 243, 242, 242, 242, 241, 239, 237, 235, 234, 229, 226, 225, 224, 223, 222, 221, 221, 219, 218, 216, 215, 213, 211, 211, 210, 208, 207, 206, 206, 205, 204, 204, 204, 204, 204, 204, 204, 204, 204, 204, 204, 204, 204]","[1009, 1009, 1009, 1008, 1008, 1007, 1002, 999, 995, 992, 985, 982, 978, 976, 973, 972, 970, 969, 965, 963, 960, 956, 949, 942, 934, 925, 904, 889, 875, 858, 827, 817, 803, 793, 770, 760, 748, 738, 719, 708, 698, 687, 669, 658, 646, 635, 613, 602, 590, 580, 561, 555, 545, 538, 521, 514, 508, 503, 492, 486, 478, 472, 459, 452, 446, 437, 424, 418, 411, 404, 393, 388, 381, 377, 365, 360, 357, 351, 340, 335, 330, 325, 313, 309, 302, 297, 286, 280, 274, 269, 261, 255, 251, 246, 237, 233, 229, 227, 218, 214, 212, 209, 204, 203, 201, 200, 198, 197, 196, 196, 193, 193, 191, 190, 187, 184, 181, 178, 173, 170, 167, 165, 163, 160, 159, 157, 155, 152, 149, 148, 143, 141, 139, 137, 134, 133, 130, 130, 127, 126, 125, 124, 123, 123, 123, 123, 123, 123, 123, 123, 123, 123]"
"Trust","Teilnehmer A hat Ihnen 2 Punkte übermittelt.","Payback","1","undefined","15","0","5","60","1080","231","5","1","1406","0","legacy","[11, 21, 31, 41, 51, 61, 71, 81, 91, 101, 111, 121, 131, 141, 151, 161, 171, 181, 191, 201, 211, 221, 231, 241, 251, 261, 271, 281, 291, 301, 311, 321, 331, 341, 351, 361, 371, 381, 391, 401, 411, 421, 431, 441, 451, 461, 471, 481, 491, 501, 511, 521, 531, 541, 551, 561, 571, 581, 591, 601, 611, 621, 631, 641, 651, 661, 671, 681, 691, 701, 711, 721, 731, 741, 751, 761, 771, 781, 791, 801, 811, 821, 831, 841, 851, 861, 871, 881, 891, 901, 911, 921, 931, 941, 951, 961, 971, 981, 991, 1001, 1011, 1021, 1031, 1041, 1051, 1061, 1071, 1081, 1091, 1101, 1111, 1121, 1131, 1141, 1151, 1161, 1171, 1181, 1191, 1201, 1211, 1221, 1231, 1241, 1251, 1261, 1271, 1281, 1291, 1301, 1311, 1321, 1331, 1341, 1351, 1361, 1371, 1381, 1391, 1401]","1126","1920","[960, 960, 960, 960, 960, 960, 960, 960, 960, 960, 957, 956, 954, 952, 949, 946, 945, 940, 932, 924, 916, 908, 882, 862, 843, 821, 790, 777, 771, 768, 762, 760, 758, 755, 744, 739, 733, 729, 718, 712, 707, 703, 689, 681, 673, 666, 647, 638, 631, 622, 605, 598, 589, 581, 563, 551, 539, 526, 505, 494, 480, 471, 454, 447, 440, 435, 425, 419, 414, 409, 400, 396, 394, 391, 385, 384, 382, 380, 378, 376, 374, 374, 370, 368, 365, 364, 360, 357, 354, 353, 344, 339, 335, 328, 318, 312, 308, 304, 297, 293, 291, 287, 280, 276, 274, 268, 260, 257, 253, 250, 245, 242, 239, 235, 230, 229, 227, 226, 223, 222, 221, 221, 221, 220, 220, 220, 220, 220, 220, 220, 220, 220, 220, 220, 220, 220, 220, 220, 220, 220]","[1010, 1010, 1010, 1010, 1010, 1010, 1010, 1010, 1010, 1010, 1011, 1010, 1008, 1007, 1004, 1002, 1001, 998, 991, 983, 974, 965, 929, 906, 880, 854, 826, 815, 807, 803, 796, 791, 785, 778, 762, 752, 740, 733, 717, 709, 700, 694, 676, 666, 655, 646, 625, 616, 608, 599, 580, 573, 565, 559, 541, 530, 515, 498, 475, 463, 447, 437, 419, 411, 404, 397, 386, 377, 372, 366, 356, 350, 347, 343, 335, 332, 330, 328, 323, 321, 318, 317, 312, 309, 306, 303, 298, 294, 291, 286, 274, 266, 260, 252, 241, 235, 230, 225, 216, 209, 204, 199, 188, 183, 180, 174, 165, 161, 156, 153, 145, 140, 136, 131, 124, 122, 119, 116, 111, 109, 108, 107, 106, 106, 105, 105, 105, 105, 105, 105, 105, 105, 105, 105, 105, 105, 105, 105, 105, 105]"
"NoTrust","Teilnehmer A hat Ihnen keine 2 Punkte übermittelt.","Payback","1","undefined","16","0","5","60","1080","231","0","1","1406","0","legacy","[11, 21, 31, 41, 51, 61, 71, 81, 91, 101, 111, 121, 131, 141, 151, 161, 171, 181, 191, 201, 211, 221, 231, 241, 251, 261, 271, 281, 291, 301, 311, 321, 331, 341, 351, 361, 371, 381, 391, 401, 411, 421, 431, 441, 451, 461, 471, 481, 491, 501, 511, 521, 531, 541, 551, 561, 571, 581, 591, 601, 611, 621, 631, 641, 651, 661, 671, 681, 691, 701, 711, 721, 731, 741, 751, 761, 771, 781, 791, 801, 811, 821, 831, 841, 851, 861, 871, 881, 891, 901, 911, 921, 931, 941, 951, 961, 971, 981, 991, 1001, 1011, 1021, 1031, 1041, 1051, 1061, 1071, 1081, 1091, 1101, 1111, 1121, 1131, 1141, 1151, 1161, 1171, 1181, 1191, 1201, 1211, 1221, 1231, 1241, 1251, 1261, 1271, 1281, 1291, 1301, 1311, 1321, 1331, 1341, 1351, 1361, 1371, 1381, 1391, 1401]","1126","1920","[960, 960, 960, 960, 960, 960, 960, 960, 960, 960, 957, 956, 954, 952, 949, 946, 945, 940, 932, 924, 916, 908, 882, 862, 843, 821, 790, 777, 771, 768, 762, 760, 758, 755, 744, 739, 733, 729, 718, 712, 707, 703, 689, 681, 673, 666, 647, 638, 631, 622, 605, 598, 589, 581, 563, 551, 539, 526, 505, 494, 480, 471, 454, 447, 440, 435, 425, 419, 414, 409, 400, 396, 394, 391, 385, 384, 382, 380, 378, 376, 374, 374, 370, 368, 365, 364, 360, 357, 354, 353, 344, 339, 335, 328, 318, 312, 308, 304, 297, 293, 291, 287, 280, 276, 274, 268, 260, 257, 253, 250, 245, 242, 239, 235, 230, 229, 227, 226, 223, 222, 221, 221, 221, 220, 220, 220, 220, 220, 220, 220, 220, 220, 220, 220, 220, 220, 220, 220, 220, 220]","[1010, 1010, 1010, 1010, 1010, 1010, 1010, 1010, 1010, 1010, 1011, 1010, 1008, 1007, 1004, 1002, 1001, 998, 991, 983, 974, 965, 929, 906, 880, 854, 826, 815, 807, 803, 796, 791, 785, 778, 762, 752, 740, 733, 717, 709, 700, 694, 676, 666, 655, 646, 625, 616, 608, 599, 580, 573, 565, 559, 541, 530, 515, 498, 475, 463, 447, 437, 419, 411, 404, 397, 386, 377, 372, 366, 356, 350, 347, 343, 335, 332, 330, 328, 323, 321, 318, 317, 312, 309, 306, 303, 298, 294, 291, 286, 274, 266, 260, 252, 241, 235, 230, 225, 216, 209, 204, 199, 188, 183, 180, 174, 165, 161, 156, 153, 145, 140, 136, 131, 124, 122, 119, 116, 111, 109, 108, 107, 106, 106, 105, 105, 105, 105, 105, 105, 105, 105, 105, 105, 105, 105, 105, 105, 105, 105]"
"Trust","Teilnehmer A hat Ihnen 2 Punkte übermittelt.","Payback","1","undefined","17","0","5","60","1080","211","5","1","1596","0","legacy","[11, 21, 31, 41, 51, 61, 71, 81, 91, 101, 111, 121, 131, 141, 151, 161, 171, 181, 191, 201, 211, 221, 231, 241, 251, 261, 271, 281, 291, 301, 311, 321, 331, 341, 351, 361, 371, 381, 391, 401, 411, 421, 431, 441, 451, 461, 471, 481, 491, 501, 511, 521, 531, 541, 551, 561, 571, 581, 591, 601, 611, 621, 631, 641, 651, 661, 671, 681, 691, 701, 711, 721, 731, 741, 751, 761, 771, 781, 791, 801, 811, 821, 831, 841, 851, 861, 871, 881, 891, 901, 911, 921, 931, 941, 951, 961, 971, 981, 991, 1001, 1011, 1021, 1031, 1041, 1051, 1061, 1071, 1081, 1091, 1101, 1111, 1121, 1131, 1141, 1151, 1161, 1171, 1181, 1191, 1201, 1211, 1221, 1231, 1241, 1251, 1261, 1271, 1281, 1291, 1301, 1311, 1321, 1331, 1341, 1351, 1361, 1371, 1381, 1391, 1401, 1411, 1421, 1431, 1441, 1451, 1461, 1471, 1481, 1491, 1501, 1511, 1521, 1531, 1541, 1551, 1561, 1571, 1581, 1591]","1126","1920","[960, 960, 960, 960, 960, 960, 960, 960, 960, 960, 959, 957, 953, 945, 940, 934, 929, 913, 906, 898, 890, 872, 858, 841, 827, 801, 793, 786, 781, 772, 768, 764, 759, 747, 740, 732, 723, 706, 701, 693, 685, 667, 655, 647, 640, 627, 622, 616, 610, 597, 592, 587, 583, 572, 570, 567, 562, 553, 549, 544, 541, 534, 530, 527, 523, 512, 507, 501, 495, 485, 481, 476, 473, 463, 459, 455, 450, 443, 439, 435, 433, 422, 417, 413, 408, 400, 395, 388, 385, 375, 369, 364, 359, 349, 346, 343, 339, 333, 331, 329, 326, 323, 320, 317, 314, 308, 305, 303, 299, 293, 289, 285, 281, 275, 270, 268, 264, 258, 254, 252, 247, 241, 239, 236, 232, 226, 224, 221, 217, 213, 210, 206, 204, 196, 193, 190, 188, 185, 184, 183, 183, 182, 182, 182, 182, 182, 182, 182, 181, 181, 181, 181, 181, 181, 181, 181, 181, 181, 181]","[1010, 1010, 1010, 1010, 1010, 1010, 1010, 1010, 1010, 1009, 1005, 999, 994, 986, 980, 974, 969, 957, 951, 941, 930, 906, 887, 866, 851, 823, 815, 809, 804, 795, 789, 785, 777, 763, 757, 750, 744, 727, 718, 711, 702, 685, 679, 670, 664, 646, 638, 632, 621, 603, 597, 588, 584, 569, 566, 561, 553, 542, 537, 531, 526, 514, 509, 503, 497, 481, 473, 465, 457, 443, 437, 429, 422, 411, 405, 400, 393, 384, 379, 374, 370, 358, 352, 347, 342, 332, 324, 319, 314, 303, 298, 293, 288, 279, 275, 271, 268, 260, 257, 255, 251, 247, 244, 241, 240, 233, 229, 227, 222, 212, 203, 199, 192, 176, 168, 161, 156, 145, 139, 136, 132, 128, 127, 125, 122, 119, 118, 115, 113, 111, 110, 108, 107, 102, 101, 97, 96, 94, 93, 93, 92, 91, 91, 91, 91, 91, 91, 91, 91, 91, 91, 91, 91, 91, 91, 91, 91, 91, 91]"
"Promise","Wie oft werden Sie die Hälfte zurückgeben?","Promise","0","undefined","17","0","6","60","1080","251","5","2","1463","0","legacy","[11, 21, 31, 41, 51, 61, 71, 81, 91, 101, 111, 121, 131, 141, 151, 161, 171, 181, 191, 201, 211, 221, 231, 241, 251, 261, 271, 281, 291, 301, 311, 321, 331, 341, 351, 361, 371, 381, 391, 401, 411, 421, 431, 441, 451, 461, 471, 481, 491, 501, 511, 521, 531, 541, 551, 561, 571, 581, 591, 601, 611, 621, 631, 641, 651, 661, 671, 681, 691, 701, 711, 721, 731, 741, 751, 761, 771, 781, 791, 801, 811, 821, 831, 841, 851, 861, 871, 881, 891, 901, 911, 921, 931, 941, 951, 961, 971, 981, 991, 1001, 1011, 1021, 1031, 1041, 1051, 1061, 1071, 1081, 1091, 1101, 1111, 1121, 1131, 1141, 1151, 1161, 1171, 1181, 1191, 1201, 1211, 1221, 1231, 1241, 1251, 1261, 1271, 1281, 1291, 1301, 1311, 1321, 1331, 1341, 1351, 1361, 1371, 1381, 1391, 1401, 1411, 1421, 1431, 1441, 1451, 1461]","1126","1920","[960, 960, 960, 962, 963, 964, 966, 967, 968, 968, 968, 968, 968, 968, 968, 968, 968, 969, 969, 972, 976, 981, 989, 1010, 1024, 1039, 1056, 1096, 1118, 1148, 1171, 1211, 1223, 1232, 1239, 1253, 1257, 1259, 1262, 1266, 1267, 1270, 1272, 1279, 1284, 1290, 1296, 1308, 1314, 1320, 1325, 1337, 1345, 1351, 1358, 1372, 1377, 1383, 1385, 1394, 1395, 1398, 1400, 1405, 1406, 1408, 1411, 1414, 1417, 1417, 1421, 1432, 1437, 1444, 1449, 1459, 1463, 1467, 1471, 1478, 1481, 1487, 1492, 1505, 1510, 1518, 1525, 1541, 1549, 1554, 1561, 1575, 1582, 1588, 1594, 1611, 1619, 1623, 1628, 1636, 1642, 1646, 1647, 1649, 1650, 1650, 1650, 1650, 1651, 1651, 1651, 1651, 1651, 1651, 1651, 1651, 1651, 1651, 1651, 1651, 1651, 1651, 1651, 1651, 1651, 1651, 1651, 1651, 1651, 1651, 1651, 1651, 1651, 1651, 1651, 1651, 1651, 1651, 1651, 1651, 1651, 1651, 1651, 1651, 1651, 1651]","[1010, 1010, 1010, 1010, 1010, 1010, 1008, 999, 997, 996, 996, 996, 996, 996, 996, 996, 996, 996, 996, 996, 991, 983, 972, 942, 923, 903, 878, 821, 790, 749, 720, 673, 661, 650, 640, 625, 620, 616, 614, 608, 606, 604, 600, 595, 591, 587, 583, 575, 570, 563, 557, 544, 537, 529, 523, 506, 500, 491, 487, 474, 470, 466, 461, 453, 449, 446, 443, 436, 432, 428, 424, 410, 403, 397, 389, 378, 372, 367, 360, 351, 347, 341, 336, 321, 314, 305, 298, 278, 269, 263, 253, 232, 224, 215, 206, 182, 171, 163, 157, 146, 139, 134, 131, 127, 126, 126, 125, 125, 124, 124, 124, 124, 124, 124, 124, 124, 124, 124, 123, 123, 123, 123, 123, 123, 123, 123, 123, 123, 123, 123, 123, 123, 123, 123, 123, 123, 123, 123, 123, 123, 123, 123, 123, 123, 123, 123]"
"Trust","Teilnehmer A hat Ihnen 2 Punkte übermittelt.","Payback","0","undefined","18","0","6","60","1080","621","10","2","2044","0","legacy","[11, 21, 31, 41, 51, 61, 71, 81, 91, 101, 111, 121, 131, 141, 151, 161, 171, 181, 191, 201, 211, 221, 231, 241, 251, 261, 271, 281, 291, 301, 311, 321, 331, 341, 351, 361, 371, 381, 391, 401, 411, 421, 431, 441, 451, 461, 471, 481, 491, 501, 511, 521, 531, 541, 551, 561, 571, 581, 591, 601, 611, 621, 631, 641, 651, 661, 671, 681, 691, 701, 711, 721, 731, 741, 751, 761, 771, 781, 791, 801, 811, 821, 831, 841, 851, 861, 871, 881, 891, 901, 911, 921, 931, 941, 951, 961, 971, 981, 991, 1001, 1011, 1021, 1031, 1041, 1051, 1061, 1071, 1081, 1091, 1101, 1111, 1121, 1131, 1141, 1151, 1161, 1171, 1181, 1191, 1201, 1211, 1221, 1231, 1241, 1251, 1261, 1271, 1281, 1291, 1301, 1311, 1321, 1331, 1341, 1351, 1361, 1371, 1381, 1391, 1401, 1411, 1421, 1431, 1441, 1451, 1461, 1471, 1481, 1491, 1501, 1511, 1521, 1531, 1541, 1551, 1561, 1571, 1581, 1591, 1601, 1611, 1621, 1631, 1641, 1651, 1661, 1671, 1681, 1691, 1701, 1711, 1721, 1731, 1741, 1751, 1761, 1771, 1781, 1791, 1801, 1811, 1821, 1831, 1841, 1851, 1861, 1871, 1881, 1891, 1901, 1911, 1921, 1931, 1941, 1951, 1961, 1971, 1981, 1991, 2001, 2011, 2021, 2031, 2041]","1126","1920","[960, 961, 961, 961, 961, 961, 961, 961, 961, 962, 962, 964, 966, 969, 971, 973, 974, 977, 979, 980, 980, 984, 984, 985, 985, 987, 988, 990, 990, 993, 996, 996, 998, 1001, 1002, 1004, 1006, 1010, 1014, 1015, 1021, 1026, 1029, 1032, 1035, 1039, 1044, 1045, 1049, 1058, 1062, 1065, 1068, 1073, 1074, 1077, 1079, 1084, 1087, 1088, 1091, 1100, 1104, 1112, 1118, 1130, 1135, 1141, 1145, 1154, 1156, 1160, 1165, 1169, 1172, 1175, 1179, 1188, 1189, 1193, 1197, 1205, 1207, 1211, 1215, 1225, 1227, 1231, 1235, 1241, 1245, 1249, 1252, 1260, 1263, 1267, 1271, 1278, 1282, 1286, 1290, 1297, 1301, 1305, 1310, 1317, 1322, 1328, 1333, 1344, 1348, 1353, 1358, 1369, 1373, 1380, 1386, 1399, 1405, 1412, 1422, 1436, 1442, 1452, 1459, 1481, 1493, 1504, 1517, 1541, 1552, 1565, 1573, 1592, 1602, 1610, 1615, 1627, 1631, 1635, 1639, 1644, 1648, 1650, 1652, 1658, 1660, 1664, 1668, 1673, 1675, 1677, 1679, 1683, 1686, 1688, 1689, 1690, 1691, 1691, 1691, 1693, 1693, 1693, 1694, 1695, 1695, 1695, 1696, 1696, 1696, 1697, 1697, 1698, 1698, 1698, 1698, 1698, 1698, 1698, 1698, 1698, 1698, 1698, 1698, 1698, 1698, 1698, 1698, 1698, 1698, 1698, 1698, 1698, 1698, 1698, 1698, 1698, 1698, 1698, 1698, 1698, 1698, 1698]","[1011, 1012, 1012, 1012, 1012, 1012, 1012, 1012, 1012, 1013, 1013, 1013, 1014, 1014, 1014, 1014, 1014, 1014, 1014, 1014, 1015, 1015, 1015, 1015, 1015, 1015, 1015, 1015, 1015, 1015, 1014, 1014, 1013, 1011, 1010, 1009, 1007, 1003, 1001, 999, 996, 992, 991, 989, 987, 984, 982, 980, 978, 973, 970, 969, 966, 963, 962, 961, 958, 955, 953, 951, 948, 939, 936, 931, 927, 919, 915, 911, 907, 900, 897, 893, 888, 884, 880, 876, 872, 862, 860, 856, 852, 841, 836, 831, 825, 812, 806, 799, 793, 782, 775, 770, 765, 754, 751, 745, 740, 730, 725, 719, 714, 704, 698, 692, 684, 675, 667, 660, 653, 637, 628, 621, 611, 592, 583, 573, 563, 543, 531, 520, 506, 480, 465, 448, 435, 397, 371, 347, 323, 275, 258, 238, 227, 203, 191, 181, 175, 158, 154, 146, 140, 132, 124, 121, 117, 108, 102, 97, 91, 81, 77, 73, 69, 63, 60, 56, 54, 53, 53, 51, 51, 49, 49, 49, 48, 48, 48, 47, 46, 46, 45, 43, 43, 42, 41, 41, 41, 41, 41, 41, 41, 41, 41, 41, 41, 41, 41, 41, 41, 41, 41, 41, 41, 41, 41, 41, 41, 41, 41, 41, 41, 41, 41, 41]"
"Trust","Teilnehmer A hat Ihnen 2 Punkte übermittelt.","Payback","1","undefined","19","0","6","60","1080","241","5","1","2023","0","legacy","[11, 21, 31, 41, 51, 61, 71, 81, 91, 101, 111, 121, 131, 141, 151, 161, 171, 181, 191, 201, 211, 221, 231, 241, 251, 261, 271, 281, 291, 301, 311, 321, 331, 341, 351, 361, 371, 381, 391, 401, 411, 421, 431, 441, 451, 461, 471, 481, 491, 501, 511, 521, 531, 541, 551, 561, 571, 581, 591, 601, 611, 621, 631, 641, 651, 661, 671, 681, 691, 701, 711, 721, 731, 741, 751, 761, 771, 781, 791, 801, 811, 821, 831, 841, 851, 861, 871, 881, 891, 901, 911, 921, 931, 941, 951, 961, 971, 981, 991, 1001, 1011, 1021, 1031, 1041, 1051, 1061, 1071, 1081, 1091, 1101, 1111, 1121, 1131, 1141, 1152, 1161, 1171, 1181, 1191, 1201, 1211, 1221, 1231, 1241, 1251, 1261, 1271, 1281, 1291, 1301, 1311, 1321, 1331, 1341, 1351, 1361, 1371, 1381, 1391, 1401, 1411, 1421, 1431, 1441, 1451, 1461, 1471, 1481, 1491, 1501, 1511, 1521, 1531, 1541, 1551, 1561, 1571, 1581, 1591, 1601, 1611, 1621, 1631, 1641, 1651, 1661, 1671, 1681, 1691, 1701, 1711, 1721, 1731, 1741, 1751, 1761, 1771, 1781, 1791, 1801, 1811, 1821, 1831, 1841, 1851, 1861, 1871, 1881, 1891, 1901, 1911, 1921, 1931, 1941, 1951, 1961, 1971, 1981, 1991, 2001, 2011, 2021]","1126","1920","[960, 960, 960, 960, 960, 960, 960, 960, 960, 960, 960, 960, 960, 960, 960, 960, 960, 960, 960, 960, 960, 960, 960, 960, 960, 960, 960, 959, 958, 958, 956, 956, 954, 954, 954, 953, 952, 950, 947, 945, 943, 942, 940, 939, 938, 938, 937, 936, 936, 934, 933, 931, 930, 930, 929, 928, 928, 927, 926, 925, 924, 924, 923, 921, 921, 920, 918, 916, 915, 913, 907, 903, 899, 896, 889, 887, 884, 881, 873, 871, 869, 868, 864, 862, 860, 858, 854, 852, 849, 845, 837, 834, 829, 825, 820, 818, 816, 815, 810, 809, 806, 801, 788, 780, 771, 762, 743, 735, 728, 723, 708, 700, 690, 683, 669, 663, 656, 649, 643, 634, 627, 621, 616, 608, 606, 604, 600, 593, 592, 587, 584, 577, 575, 571, 570, 563, 559, 554, 549, 540, 535, 532, 527, 521, 519, 516, 513, 508, 505, 503, 500, 491, 488, 484, 480, 472, 468, 466, 461, 453, 451, 447, 444, 438, 434, 428, 423, 408, 401, 395, 388, 374, 365, 356, 346, 327, 317, 306, 296, 275, 267, 260, 255, 247, 242, 239, 236, 232, 230, 227, 224, 220, 218, 216, 216, 214, 214, 214, 214, 214, 214, 214]","[1010, 1010, 1010, 1010, 1010, 1010, 1010, 1010, 1010, 1010, 1010, 1010, 1010, 1010, 1010, 1009, 1009, 1008, 1001, 995, 985, 974, 943, 923, 903, 884, 850, 839, 828, 822, 811, 805, 801, 795, 780, 772, 762, 750, 735, 727, 722, 718, 712, 710, 708, 706, 703, 701, 698, 695, 690, 688, 685, 683, 679, 676, 675, 673, 670, 668, 667, 666, 663, 662, 661, 659, 654, 652, 649, 647, 638, 632, 624, 618, 606, 599, 593, 587, 574, 571, 566, 562, 554, 548, 545, 540, 534, 531, 526, 521, 511, 507, 502, 497, 490, 487, 485, 483, 475, 471, 467, 458, 444, 436, 428, 423, 411, 405, 401, 397, 386, 381, 375, 371, 363, 359, 353, 349, 346, 338, 334, 330, 327, 320, 319, 318, 315, 311, 310, 310, 307, 303, 302, 299, 298, 294, 293, 290, 288, 283, 280, 279, 276, 271, 270, 268, 264, 259, 255, 253, 250, 241, 238, 234, 231, 222, 218, 217, 214, 208, 207, 204, 204, 200, 199, 194, 192, 184, 180, 176, 173, 163, 158, 153, 149, 140, 136, 131, 126, 119, 118, 114, 112, 108, 106, 105, 104, 102, 102, 102, 101, 100, 100, 100, 100, 100, 100, 100, 100, 100, 100, 100]"
"Trust","Teilnehmer A hat Ihnen 2 Punkte übermittelt.","Payback","0","undefined","20","0","6","60","1080","371","10","2","1796","0","legacy","[11, 21, 31, 41, 51, 61, 71, 81, 91, 101, 111, 121, 131, 141, 151, 161, 171, 181, 191, 201, 211, 221, 231, 241, 251, 261, 271, 281, 291, 301, 311, 321, 331, 341, 351, 361, 371, 381, 391, 401, 411, 421, 431, 441, 451, 461, 471, 481, 491, 501, 511, 521, 531, 541, 551, 561, 571, 581, 591, 601, 611, 621, 631, 641, 651, 661, 671, 681, 691, 701, 711, 721, 731, 741, 751, 761, 771, 781, 791, 801, 811, 821, 831, 841, 851, 861, 871, 881, 891, 901, 911, 921, 931, 941, 951, 961, 971, 981, 991, 1001, 1011, 1021, 1031, 1041, 1051, 1061, 1071, 1081, 1091, 1101, 1111, 1121, 1131, 1141, 1151, 1161, 1171, 1181, 1191, 1201, 1211, 1221, 1231, 1241, 1251, 1261, 1271, 1281, 1291, 1301, 1311, 1321, 1331, 1341, 1351, 1361, 1371, 1381, 1391, 1401, 1411, 1421, 1431, 1441, 1451, 1461, 1471, 1481, 1491, 1501, 1511, 1521, 1531, 1541, 1551, 1561, 1571, 1581, 1591, 1601, 1611, 1621, 1631, 1641, 1651, 1661, 1671, 1681, 1691, 1701, 1711, 1721, 1731, 1741, 1751, 1761, 1771, 1781, 1791]","1126","1920","[960, 960, 960, 960, 960, 960, 960, 960, 960, 960, 960, 960, 960, 960, 960, 960, 960, 960, 960, 960, 960, 960, 960, 960, 960, 960, 960, 960, 960, 960, 960, 963, 967, 976, 981, 986, 992, 1005, 1010, 1016, 1020, 1026, 1028, 1031, 1032, 1038, 1043, 1047, 1049, 1059, 1063, 1068, 1070, 1078, 1081, 1087, 1090, 1101, 1105, 1110, 1114, 1125, 1129, 1134, 1138, 1150, 1156, 1159, 1164, 1174, 1180, 1185, 1190, 1201, 1207, 1212, 1216, 1223, 1226, 1230, 1232, 1239, 1242, 1247, 1253, 1268, 1277, 1287, 1299, 1321, 1333, 1350, 1359, 1379, 1387, 1395, 1402, 1415, 1420, 1427, 1433, 1442, 1448, 1451, 1456, 1460, 1464, 1467, 1469, 1475, 1478, 1483, 1487, 1494, 1499, 1504, 1506, 1512, 1515, 1518, 1520, 1525, 1530, 1533, 1538, 1549, 1556, 1561, 1564, 1573, 1577, 1580, 1583, 1590, 1593, 1594, 1596, 1597, 1598, 1598, 1598, 1600, 1600, 1602, 1604, 1607, 1608, 1610, 1613, 1619, 1624, 1629, 1631, 1639, 1644, 1644, 1646, 1649, 1651, 1651, 1651, 1651, 1651, 1651, 1652, 1652, 1652, 1653, 1653, 1654, 1654, 1655, 1655, 1656, 1656, 1656, 1656, 1656, 1656]","[1011, 1011, 1011, 1011, 1011, 1011, 1011, 1011, 1011, 1011, 1011, 1011, 1011, 1011, 1011, 1011, 1011, 1011, 1011, 1011, 1011, 1011, 1011, 1011, 1011, 1011, 1011, 1011, 1011, 1007, 1004, 1000, 993, 975, 962, 950, 933, 903, 888, 876, 866, 851, 845, 839, 832, 819, 810, 801, 794, 778, 773, 767, 763, 752, 748, 741, 738, 723, 716, 709, 701, 688, 682, 674, 668, 653, 646, 639, 632, 614, 604, 595, 588, 571, 565, 556, 551, 540, 536, 530, 527, 516, 511, 505, 498, 481, 472, 462, 449, 429, 418, 405, 398, 384, 377, 369, 362, 348, 341, 335, 326, 317, 310, 306, 302, 297, 294, 290, 289, 282, 278, 273, 268, 261, 257, 253, 250, 245, 243, 241, 240, 236, 233, 230, 226, 220, 216, 213, 212, 206, 202, 201, 199, 192, 189, 186, 184, 180, 179, 179, 177, 174, 173, 171, 168, 165, 163, 160, 156, 150, 146, 143, 140, 133, 128, 127, 124, 121, 120, 119, 119, 119, 119, 119, 118, 118, 118, 117, 117, 116, 116, 115, 115, 115, 115, 115, 115, 115, 115]"
"Promise","Wie oft werden Sie die Hälfte zurückgeben?","Promise","1","undefined","20","0","7","60","1080","221","10","1","1175","0","legacy","[11, 21, 31, 41, 51, 61, 71, 81, 91, 101, 111, 121, 131, 141, 151, 161, 171, 181, 191, 201, 211, 221, 231, 241, 251, 261, 271, 281, 291, 301, 311, 321, 331, 341, 351, 361, 371, 381, 391, 401, 411, 421, 431, 441, 451, 461, 471, 481, 491, 501, 511, 521, 531, 541, 551, 561, 571, 581, 591, 601, 611, 621, 631, 641, 651, 661, 671, 681, 691, 701, 711, 721, 731, 741, 751, 761, 771, 781, 791, 801, 811, 821, 831, 841, 851, 861, 871, 881, 891, 901, 911, 921, 931, 941, 951, 961, 971, 981, 991, 1001, 1011, 1021, 1031, 1041, 1051, 1061, 1071, 1081, 1091, 1101, 1111, 1121, 1131, 1141, 1151, 1161, 1171]","1126","1920","[960, 960, 960, 960, 960, 960, 960, 960, 960, 960, 960, 960, 960, 959, 956, 951, 947, 944, 941, 931, 924, 914, 897, 841, 803, 760, 712, 621, 583, 547, 523, 489, 481, 474, 469, 462, 459, 457, 455, 451, 449, 446, 444, 437, 433, 429, 424, 413, 407, 402, 395, 383, 378, 372, 364, 349, 340, 331, 324, 316, 314, 310, 309, 304, 303, 301, 299, 292, 287, 282, 277, 267, 261, 258, 255, 249, 247, 245, 244, 241, 239, 237, 235, 232, 231, 231, 230, 230, 230, 230, 229, 229, 229, 229, 229, 229, 229, 229, 229, 229, 229, 229, 229, 229, 229, 229, 229, 229, 229, 229, 229, 229, 229, 229, 229, 229, 229]","[1010, 1010, 1010, 1010, 1010, 1010, 1010, 1010, 1010, 1010, 1007, 1003, 999, 995, 993, 986, 981, 976, 971, 956, 946, 931, 908, 830, 779, 724, 665, 547, 499, 457, 433, 396, 385, 376, 367, 355, 350, 346, 343, 337, 334, 331, 329, 320, 315, 309, 300, 282, 272, 263, 254, 239, 234, 227, 218, 206, 198, 190, 185, 178, 176, 173, 172, 168, 167, 165, 164, 157, 154, 150, 145, 136, 132, 129, 125, 121, 120, 117, 117, 113, 112, 108, 107, 104, 102, 100, 100, 99, 98, 97, 96, 96, 96, 96, 96, 96, 96, 96, 96, 96, 96, 96, 96, 96, 96, 96, 96, 96, 96, 96, 96, 96, 96, 96, 96, 96, 96]"
"Trust","Teilnehmer A hat Ihnen 2 Punkte übermittelt.","Payback","1","undefined","21","0","7","60","1080","261","5","1","1404","0","legacy","[11, 21, 31, 41, 51, 61, 71, 81, 91, 101, 111, 121, 131, 141, 151, 161, 171, 181, 191, 201, 211, 221, 231, 241, 251, 261, 271, 281, 291, 301, 311, 321, 331, 341, 351, 361, 371, 381, 391, 401, 411, 421, 431, 441, 451, 461, 471, 481, 491, 501, 511, 521, 531, 541, 551, 561, 571, 581, 591, 601, 611, 621, 631, 641, 651, 661, 671, 681, 691, 701, 711, 721, 731, 741, 751, 761, 771, 781, 791, 801, 811, 821, 831, 841, 851, 861, 871, 881, 891, 901, 911, 921, 931, 941, 951, 961, 971, 981, 991, 1001, 1011, 1021, 1031, 1041, 1051, 1061, 1071, 1081, 1091, 1101, 1111, 1121, 1131, 1141, 1151, 1161, 1171, 1181, 1191, 1201, 1211, 1221, 1231, 1241, 1251, 1261, 1271, 1281, 1291, 1301, 1311, 1321, 1331, 1341, 1351, 1361, 1371, 1381, 1391, 1401]","1126","1920","[960, 960, 960, 960, 960, 960, 960, 960, 960, 960, 960, 960, 960, 958, 957, 954, 953, 946, 943, 939, 936, 927, 924, 920, 919, 908, 903, 897, 893, 888, 884, 880, 878, 871, 869, 866, 864, 858, 857, 854, 854, 851, 851, 848, 846, 842, 838, 836, 832, 824, 819, 813, 809, 797, 790, 783, 778, 770, 764, 762, 756, 747, 740, 734, 724, 709, 700, 694, 685, 670, 661, 654, 646, 626, 616, 605, 596, 579, 571, 564, 557, 548, 542, 538, 531, 519, 512, 505, 500, 487, 480, 471, 459, 440, 430, 420, 408, 385, 373, 363, 351, 328, 318, 307, 296, 280, 274, 269, 264, 254, 249, 245, 240, 231, 225, 220, 214, 204, 201, 200, 199, 195, 193, 192, 191, 189, 187, 186, 185, 184, 182, 181, 181, 181, 181, 181, 181, 181, 181, 181]","[1010, 1010, 1010, 1010, 1010, 1010, 1010, 1010, 1010, 1010, 1010, 1010, 1008, 1004, 1003, 999, 997, 989, 985, 980, 975, 964, 958, 952, 948, 935, 926, 920, 914, 904, 897, 890, 886, 874, 869, 861, 856, 847, 844, 841, 839, 835, 833, 829, 826, 818, 813, 808, 802, 787, 780, 772, 765, 748, 741, 731, 723, 709, 702, 693, 687, 672, 662, 651, 637, 615, 605, 597, 586, 569, 559, 551, 541, 520, 511, 499, 490, 472, 465, 458, 450, 439, 431, 426, 420, 408, 403, 398, 393, 382, 376, 369, 361, 348, 340, 333, 325, 310, 303, 296, 287, 270, 262, 254, 246, 236, 229, 225, 220, 210, 205, 200, 195, 185, 179, 174, 169, 160, 155, 153, 150, 144, 141, 140, 138, 135, 132, 129, 127, 122, 119, 116, 116, 113, 111, 110, 110, 110, 110, 110]"
"Trust","Teilnehmer A hat Ihnen 2 Punkte übermittelt.","Payback","1","undefined","22","0","7","60","1080","241","5","1","1213","0","legacy","[11, 21, 31, 41, 51, 61, 71, 81, 91, 101, 111, 121, 131, 141, 151, 161, 171, 181, 191, 201, 211, 221, 231, 241, 251, 261, 271, 281, 291, 301, 311, 321, 331, 341, 351, 361, 371, 381, 391, 401, 411, 421, 431, 441, 451, 461, 471, 481, 491, 501, 511, 521, 531, 541, 551, 561, 571, 581, 591, 601, 611, 621, 631, 641, 651, 661, 671, 681, 691, 701, 711, 721, 731, 741, 751, 761, 771, 781, 791, 801, 811, 821, 831, 841, 851, 861, 871, 881, 891, 901, 911, 921, 931, 941, 951, 961, 971, 981, 991, 1001, 1011, 1021, 1031, 1041, 1051, 1061, 1071, 1081, 1091, 1101, 1111, 1121, 1131, 1141, 1151, 1161, 1171, 1181, 1191, 1201, 1211]","1126","1920","[960, 960, 960, 960, 960, 960, 960, 960, 960, 960, 960, 960, 960, 961, 961, 961, 961, 961, 961, 956, 951, 945, 924, 900, 875, 844, 782, 766, 756, 743, 731, 723, 722, 718, 712, 709, 707, 703, 697, 694, 693, 690, 680, 676, 670, 663, 648, 639, 627, 613, 593, 574, 563, 547, 518, 509, 496, 487, 472, 463, 457, 450, 432, 426, 420, 414, 402, 396, 391, 388, 379, 376, 371, 364, 353, 347, 341, 335, 325, 322, 320, 318, 316, 315, 315, 314, 313, 312, 312, 311, 310, 308, 306, 306, 304, 302, 298, 297, 290, 283, 275, 270, 258, 255, 252, 250, 250, 250, 250, 250, 250, 250, 249, 248, 248, 248, 248, 248, 248, 248, 248]","[1010, 1010, 1010, 1010, 1010, 1010, 1010, 1010, 1010, 1010, 1010, 1010, 1010, 1010, 1009, 1006, 1005, 1003, 996, 989, 982, 973, 947, 927, 900, 872, 817, 792, 775, 758, 735, 725, 719, 712, 702, 699, 695, 689, 682, 676, 674, 669, 657, 649, 643, 635, 612, 603, 585, 570, 526, 509, 490, 470, 423, 407, 385, 369, 335, 319, 308, 295, 267, 257, 245, 235, 216, 209, 202, 198, 188, 185, 180, 175, 167, 162, 155, 151, 142, 141, 136, 134, 129, 129, 127, 127, 125, 124, 123, 123, 122, 120, 119, 119, 117, 116, 113, 112, 108, 102, 100, 96, 91, 89, 87, 86, 86, 86, 86, 86, 86, 86, 85, 85, 85, 85, 85, 85, 85, 85, 85]"
"Trust","Teilnehmer A hat Ihnen 2 Punkte übermittelt.","Payback","1","undefined","23","0","7","60","1080","171","5","1","708","0","legacy","[11, 21, 31, 41, 51, 61, 71, 81, 91, 101, 111, 121, 131, 141, 151, 161, 171, 181, 191, 201, 211, 221, 231, 241, 251, 261, 271, 281, 291, 301, 311, 321, 331, 341, 351, 361, 371, 381, 391, 401, 411, 421, 431, 441, 451, 461, 471, 481, 491, 501, 511, 521, 531, 541, 551, 561, 571, 581, 591, 601, 611, 621, 631, 641, 651, 661, 671, 681, 691, 701]","1126","1920","[960, 960, 960, 960, 960, 960, 960, 960, 960, 960, 960, 960, 958, 949, 940, 924, 905, 838, 790, 743, 689, 592, 541, 496, 455, 389, 368, 354, 337, 312, 302, 294, 288, 270, 261, 253, 247, 239, 239, 238, 238, 238, 238, 238, 238, 232, 229, 225, 222, 219, 218, 218, 218, 218, 218, 218, 218, 218, 218, 218, 218, 218, 218, 218, 218, 218, 218, 218, 218, 218]","[1010, 1010, 1010, 1010, 1010, 1010, 1010, 1010, 1010, 1010, 1009, 1005, 999, 981, 968, 945, 920, 843, 801, 752, 700, 609, 562, 514, 466, 389, 361, 338, 311, 268, 251, 237, 226, 204, 192, 184, 177, 167, 166, 166, 164, 163, 160, 157, 154, 141, 132, 122, 115, 109, 106, 106, 106, 106, 106, 106, 106, 106, 106, 106, 106, 106, 106, 106, 106, 106, 106, 106, 106, 106]"
CHF,TotCHF,final_payoff,sum
"17.5","37.5","[10, 10, 5, 10]","35"
