Condition,PromiseStage,Stage,accuracy,avg_rt,count_decision_sequence,count_loop1,count_trial_sequence,font_size,height,init_time,payoff,response,rt,subject_nr,synth_backend,tTrajectory,time_experiment,width,xTrajectory,yTrajectory
"Promise","Wie oft werden Sie die Hälfte zurückgeben?","Promise","1","undefined","NA","0","0","60","1080","451","NA","1","1601","0","legacy","[11, 21, 31, 41, 51, 61, 71, 81, 91, 101, 111, 121, 131, 141, 151, 161, 171, 181, 191, 201, 211, 221, 231, 241, 251, 261, 271, 281, 291, 301, 311, 321, 331, 341, 351, 361, 371, 381, 391, 401, 411, 421, 431, 441, 451, 461, 471, 481, 491, 501, 511, 521, 531, 541, 551, 561, 571, 581, 591, 601, 611, 621, 631, 641, 651, 661, 671, 681, 691, 701, 711, 721, 731, 741, 751, 761, 771, 781, 791, 801, 811, 821, 831, 841, 851, 861, 871, 881, 891, 901, 911, 921, 931, 941, 951, 961, 971, 981, 991, 1001, 1011, 1021, 1031, 1041, 1051, 1061, 1071, 1081, 1091, 1101, 1111, 1121, 1131, 1141, 1151, 1161, 1171, 1181, 1191, 1201, 1211, 1221, 1231, 1241, 1251, 1261, 1271, 1281, 1291, 1301, 1311, 1321, 1331, 1341, 1351, 1361, 1371, 1381, 1391, 1401, 1411, 1421, 1431, 1441, 1451, 1461, 1471, 1481, 1491, 1501, 1511, 1521, 1531, 1541, 1551, 1561, 1571, 1581, 1591, 1601]","1074","1920","[960, 960, 960, 960, 960, 960, 960, 960, 960, 960, 960, 960, 960, 960, 960, 960, 960, 960, 960, 960, 960, 960, 960, 960, 960, 960, 960, 960, 960, 960, 960, 960, 960, 960, 960, 960, 960, 962, 963, 965, 970, 974, 981, 986, 995, 997, 1000, 1000, 1002, 1002, 1003, 1003, 1003, 1003, 1004, 1005, 1008, 1011, 1017, 1022, 1043, 1059, 1074, 1096, 1139, 1162, 1188, 1208, 1245, 1255, 1264, 1271, 1283, 1286, 1289, 1292, 1295, 1296, 1296, 1298, 1298, 1299, 1303, 1305, 1315, 1320, 1325, 1332, 1341, 1347, 1352, 1358, 1365, 1370, 1375, 1378, 1386, 1391, 1395, 1399, 1405, 1406, 1409, 1413, 1425, 1431, 1439, 1447, 1470, 1482, 1494, 1507, 1535, 1546, 1560, 1570, 1595, 1605, 1618, 1626, 1643, 1648, 1654, 1659, 1669, 1671, 1677, 1678, 1685, 1687, 1690, 1692, 1697, 1700, 1701, 1703, 1707, 1711, 1712, 1717, 1723, 1725, 1727, 1727, 1729, 1729, 1731, 1731, 1731, 1731, 1731, 1731, 1731, 1731, 1731, 1731, 1731, 1731, 1731, 1731]","[1010, 1010, 1010, 1010, 1010, 1010, 1010, 1010, 1010, 1010, 1010, 1010, 1010, 1010, 1010, 1010, 1010, 1010, 1010, 1010, 1010, 1010, 1010, 1010, 1010, 1010, 1010, 1010, 1010, 1010, 1010, 1010, 1010, 1010, 1010, 1010, 1010, 1006, 1000, 994, 976, 966, 954, 946, 932, 929, 926, 926, 924, 923, 923, 923, 922, 921, 920, 919, 912, 907, 899, 890, 862, 839, 819, 791, 727, 700, 671, 648, 604, 592, 580, 570, 552, 546, 541, 536, 530, 527, 524, 523, 518, 515, 509, 503, 485, 475, 462, 453, 433, 424, 415, 404, 391, 382, 376, 370, 357, 351, 345, 340, 332, 329, 325, 319, 306, 300, 293, 285, 267, 256, 244, 231, 208, 200, 190, 183, 168, 161, 153, 148, 136, 132, 129, 125, 119, 117, 114, 113, 110, 109, 106, 106, 104, 103, 102, 101, 100, 99, 99, 98, 96, 96, 95, 95, 94, 94, 94, 94, 94, 94, 94, 94, 94, 94, 93, 93, 93, 93, 93, 93]"
Cond,DecisionB,Stage,accuracy,avg_rt,count_decision_sequence,count_loop1,count_trial_sequence,font_size,height,init_time,payoff,response,rt,subject_nr,synth_backend,tTrajectory,time_experiment,width,xTrajectory,yTrajectory
"Trust","Teilnehmer A hat Ihnen 2 Punkte übermittelt.","Payback","0","undefined","0","0","0","60","1080","531","10","2","4006","0","legacy","[11, 21, 31, 41, 51, 61, 71, 81, 91, 101, 111, 121, 131, 141, 151, 161, 171, 181, 191, 201, 211, 221, 231, 241, 251, 261, 271, 281, 291, 301, 311, 321, 331, 341, 351, 361, 371, 381, 391, 401, 411, 421, 431, 441, 451, 461, 471, 481, 491, 501, 511, 521, 531, 541, 551, 561, 571, 581, 591, 601, 611, 621, 631, 641, 651, 661, 671, 681, 691, 701, 711, 721, 731, 741, 751, 761, 771, 781, 791, 801, 811, 821, 831, 841, 851, 861, 871, 881, 891, 901, 911, 921, 931, 941, 951, 961, 971, 981, 991, 1001, 1011, 1021, 1031, 1041, 1051, 1061, 1071, 1081, 1091, 1101, 1111, 1121, 1131, 1141, 1151, 1161, 1171, 1181, 1191, 1201, 1211, 1221, 1231, 1241, 1251, 1261, 1271, 1281, 1291, 1301, 1311, 1321, 1331, 1341, 1351, 1361, 1371, 1381, 1391, 1401, 1411, 1421, 1431, 1441, 1451, 1461, 1471, 1481, 1491, 1501, 1511, 1521, 1531, 1541, 1551, 1561, 1571, 1581, 1591, 1601, 1611, 1621, 1631, 1641, 1651, 1661, 1671, 1681, 1691, 1701, 1711, 1721, 1731, 1741, 1751, 1761, 1771, 1781, 1791, 1801, 1811, 1821, 1831, 1841, 1851, 1861, 1871, 1881, 1891, 1901, 1911, 1921, 1931, 1941, 1951, 1961, 1971, 1981, 1991, 2001, 2011, 2021, 2031, 2041, 2051, 2061, 2071, 2081, 2091, 2101, 2111, 2121, 2131, 2141, 2151, 2161, 2171, 2181, 2191, 2201, 2211, 2221, 2231, 2241, 2251, 2261, 2271, 2281, 2291, 2301, 2311, 2321, 2331, 2341, 2351, 2361, 2371, 2381, 2391, 2401, 2411, 2421, 2431, 2441, 2451, 2461, 2471, 2481, 2491, 2501, 2511, 2521, 2531, 2541, 2551, 2561, 2571, 2581, 2591, 2601, 2611, 2621, 2631, 2641, 2651, 2661, 2671, 2681, 2691, 2701, 2711, 2721, 2731, 2741, 2751, 2761, 2771, 2781, 2791, 2801, 2811, 2821, 2831, 2841, 2851, 2861, 2871, 2881, 2891, 2901, 2911, 2921, 2931, 2941, 2951, 2961, 2971, 2981, 2991, 3001, 3011, 3021, 3031, 3041, 3051, 3061, 3071, 3081, 3091, 3101, 3111, 3121, 3131, 3141, 3151, 3161, 3171, 3181, 3191, 3201, 3211, 3221, 3231, 3241, 3251, 3261, 3271, 3281, 3291, 3301, 3311, 3321, 3331, 3341, 3351, 3361, 3371, 3381, 3391, 3401, 3411, 3421, 3431, 3441, 3451, 3461, 3471, 3481, 3491, 3501, 3511, 3521, 3531, 3541, 3551, 3561, 3571, 3581, 3591, 3601, 3611, 3621, 3631, 3641, 3651, 3661, 3671, 3681, 3691, 3701, 3711, 3721, 3731, 3741, 3751, 3761, 3771, 3781, 3791, 3801, 3811, 3821, 3831, 3841, 3851, 3861, 3871, 3881, 3891, 3901, 3911, 3921, 3931, 3941, 3951, 3961, 3971, 3981, 3991, 4001]","1074","1920","[960, 960, 960, 960, 960, 960, 960, 960, 960, 960, 960, 960, 960, 960, 960, 960, 960, 960, 960, 960, 960, 961, 962, 963, 964, 966, 968, 971, 971, 971, 972, 972, 972, 972, 972, 972, 972, 973, 974, 974, 974, 974, 975, 975, 976, 976, 977, 978, 978, 978, 982, 983, 983, 985, 986, 986, 989, 990, 993, 993, 995, 996, 999, 999, 1000, 1001, 1003, 1005, 1006, 1006, 1010, 1010, 1011, 1013, 1015, 1015, 1017, 1018, 1020, 1022, 1023, 1023, 1025, 1026, 1027, 1028, 1030, 1031, 1032, 1035, 1037, 1040, 1041, 1046, 1048, 1050, 1051, 1053, 1055, 1056, 1056, 1057, 1058, 1058, 1059, 1059, 1060, 1061, 1061, 1061, 1062, 1062, 1063, 1063, 1064, 1064, 1064, 1065, 1065, 1065, 1065, 1065, 1065, 1067, 1067, 1067, 1067, 1067, 1067, 1067, 1067, 1067, 1068, 1068, 1068, 1068, 1068, 1068, 1068, 1068, 1068, 1068, 1068, 1068, 1068, 1068, 1068, 1068, 1068, 1068, 1068, 1068, 1068, 1068, 1068, 1068, 1068, 1067, 1067, 1067, 1067, 1066, 1066, 1065, 1065, 1065, 1065, 1065, 1065, 1065, 1065, 1065, 1065, 1065, 1065, 1065, 1065, 1065, 1065, 1065, 1066, 1067, 1067, 1068, 1068, 1069, 1069, 1070, 1070, 1070, 1070, 1070, 1070, 1070, 1071, 1071, 1071, 1071, 1071, 1071, 1072, 1072, 1072, 1072, 1073, 1073, 1073, 1073, 1073, 1073, 1074, 1074, 1074, 1074, 1075, 1075, 1076, 1077, 1078, 1078, 1079, 1079, 1081, 1081, 1081, 1081, 1084, 1084, 1084, 1084, 1085, 1085, 1085, 1086, 1086, 1086, 1086, 1086, 1086, 1086, 1087, 1087, 1087, 1087, 1087, 1088, 1088, 1088, 1088, 1088, 1089, 1089, 1090, 1090, 1090, 1091, 1091, 1091, 1091, 1091, 1091, 1091, 1091, 1092, 1092, 1093, 1093, 1093, 1093, 1093, 1094, 1094, 1094, 1095, 1095, 1095, 1095, 1095, 1095, 1095, 1095, 1095, 1095, 1095, 1096, 1096, 1096, 1096, 1096, 1097, 1097, 1097, 1098, 1098, 1098, 1098, 1098, 1098, 1098, 1100, 1100, 1100, 1101, 1101, 1101, 1101, 1101, 1101, 1101, 1101, 1101, 1101, 1101, 1101, 1100, 1099, 1097, 1095, 1090, 1086, 1081, 1077, 1067, 1061, 1054, 1048, 1031, 1021, 1009, 999, 982, 974, 966, 959, 946, 938, 932, 925, 908, 898, 891, 882, 863, 854, 844, 831, 807, 795, 783, 768, 744, 730, 714, 697, 664, 650, 638, 629, 608, 600, 591, 580, 559, 549, 538, 529, 512, 505, 494, 484, 463, 451, 441, 429, 405, 394, 385, 375, 358, 350, 341, 333, 318, 309, 301, 291, 273, 263, 254, 244, 224, 214, 205, 196, 191, 190, 190, 190, 190, 190]","[1010, 1010, 1010, 1010, 1010, 1010, 1010, 1010, 1010, 1010, 1010, 1010, 1010, 1010, 1009, 1008, 1006, 1006, 1003, 1002, 1000, 999, 996, 994, 991, 987, 982, 978, 976, 975, 973, 972, 972, 972, 970, 969, 969, 968, 966, 966, 965, 963, 962, 961, 959, 959, 956, 954, 952, 949, 944, 941, 938, 936, 930, 927, 924, 922, 915, 913, 910, 907, 902, 899, 896, 893, 888, 885, 882, 879, 874, 870, 867, 863, 857, 853, 848, 846, 837, 835, 830, 828, 823, 820, 816, 812, 806, 802, 795, 788, 778, 769, 762, 753, 738, 731, 722, 715, 704, 698, 692, 688, 678, 675, 671, 668, 661, 659, 656, 653, 649, 646, 644, 641, 637, 634, 634, 632, 626, 625, 623, 622, 619, 616, 615, 614, 612, 611, 609, 609, 607, 606, 606, 606, 605, 604, 604, 603, 603, 603, 603, 603, 603, 603, 603, 603, 603, 603, 602, 601, 597, 596, 596, 594, 592, 591, 589, 587, 586, 583, 582, 580, 577, 575, 575, 573, 572, 570, 570, 570, 570, 570, 569, 569, 567, 566, 563, 563, 559, 559, 558, 556, 554, 552, 552, 550, 547, 545, 545, 543, 541, 540, 540, 540, 538, 537, 536, 536, 534, 533, 532, 532, 530, 530, 529, 529, 528, 527, 527, 526, 525, 524, 523, 523, 521, 521, 519, 518, 516, 516, 514, 514, 509, 509, 507, 506, 500, 499, 498, 496, 493, 493, 492, 491, 490, 489, 488, 488, 487, 485, 485, 485, 484, 483, 482, 480, 479, 477, 477, 475, 473, 472, 472, 471, 471, 470, 470, 470, 467, 466, 465, 464, 461, 460, 460, 457, 457, 457, 457, 456, 454, 454, 454, 453, 453, 452, 452, 451, 450, 450, 449, 449, 448, 448, 447, 447, 446, 446, 446, 444, 444, 444, 444, 444, 443, 441, 441, 441, 441, 439, 439, 438, 437, 436, 436, 435, 435, 435, 435, 435, 433, 432, 430, 429, 424, 422, 418, 416, 408, 402, 396, 390, 376, 369, 362, 358, 343, 337, 327, 320, 311, 306, 302, 298, 290, 285, 280, 275, 263, 256, 251, 245, 232, 227, 222, 213, 202, 196, 191, 185, 175, 169, 161, 156, 142, 138, 134, 132, 127, 123, 121, 120, 116, 115, 113, 110, 109, 106, 106, 104, 100, 98, 96, 95, 91, 90, 89, 87, 84, 83, 82, 80, 79, 78, 77, 75, 74, 73, 73, 73, 73, 73, 73, 72, 70, 70, 70, 69, 69, 69]"
"Trust","Teilnehmer A hat Ihnen 2 Punkte übermittelt.","Payback","0","undefined","1","0","0","60","1080","751","10","2","2488","0","legacy","[11, 21, 31, 41, 51, 61, 71, 81, 91, 101, 111, 121, 131, 141, 151, 161, 171, 181, 191, 201, 211, 221, 231, 241, 251, 261, 271, 281, 291, 301, 311, 321, 331, 341, 351, 361, 371, 381, 391, 401, 411, 421, 431, 441, 451, 461, 471, 481, 491, 501, 511, 521, 531, 541, 551, 561, 571, 581, 591, 601, 611, 621, 631, 641, 651, 661, 671, 681, 691, 701, 711, 721, 731, 741, 751, 761, 771, 781, 791, 801, 811, 821, 831, 841, 851, 861, 871, 881, 891, 901, 911, 921, 931, 941, 951, 961, 971, 981, 991, 1001, 1011, 1021, 1031, 1041, 1051, 1061, 1071, 1081, 1091, 1101, 1111, 1121, 1131, 1141, 1151, 1161, 1171, 1181, 1191, 1201, 1211, 1221, 1231, 1241, 1251, 1261, 1271, 1281, 1291, 1301, 1311, 1321, 1331, 1341, 1351, 1361, 1371, 1381, 1391, 1401, 1411, 1421, 1431, 1441, 1451, 1461, 1471, 1481, 1491, 1501, 1511, 1521, 1531, 1541, 1551, 1561, 1571, 1581, 1591, 1601, 1611, 1621, 1631, 1641, 1651, 1661, 1671, 1681, 1691, 1701, 1711, 1721, 1731, 1741, 1751, 1761, 1771, 1781, 1791, 1801, 1811, 1821, 1831, 1841, 1851, 1861, 1871, 1881, 1891, 1901, 1911, 1921, 1931, 1941, 1951, 1961, 1971, 1981, 1991, 2001, 2011, 2021, 2031, 2041, 2051, 2061, 2071, 2081, 2091, 2101, 2111, 2121, 2131, 2141, 2151, 2161, 2171, 2181, 2191, 2201, 2211, 2221, 2231, 2241, 2251, 2261, 2271, 2281, 2291, 2301, 2311, 2321, 2331, 2341, 2351, 2361, 2371, 2381, 2391, 2401, 2411, 2421, 2431, 2441, 2451, 2461, 2471, 2481]","1074","1920","[960, 960, 960, 960, 960, 960, 960, 960, 960, 960, 960, 960, 960, 960, 960, 960, 960, 960, 960, 960, 960, 959, 959, 959, 958, 958, 957, 956, 956, 954, 954, 949, 946, 942, 941, 936, 936, 933, 931, 928, 927, 927, 926, 924, 924, 923, 923, 922, 922, 922, 922, 922, 922, 922, 922, 922, 922, 922, 922, 922, 922, 922, 922, 922, 922, 922, 922, 922, 922, 922, 922, 921, 920, 920, 920, 920, 920, 920, 920, 920, 918, 918, 918, 918, 917, 917, 917, 917, 917, 917, 917, 916, 916, 914, 914, 914, 913, 908, 905, 895, 889, 883, 874, 857, 852, 850, 847, 839, 833, 828, 822, 809, 802, 796, 791, 784, 782, 779, 777, 774, 771, 769, 765, 759, 755, 750, 745, 736, 729, 724, 716, 697, 689, 682, 674, 662, 656, 651, 645, 631, 625, 617, 608, 593, 587, 581, 573, 560, 552, 547, 542, 533, 528, 523, 518, 507, 501, 496, 490, 477, 468, 462, 453, 439, 431, 427, 421, 413, 412, 409, 407, 403, 401, 398, 397, 394, 391, 390, 389, 387, 385, 384, 383, 379, 376, 372, 372, 367, 366, 365, 364, 361, 359, 358, 356, 355, 354, 353, 352, 351, 349, 349, 348, 348, 347, 347, 345, 342, 341, 338, 334, 331, 329, 327, 326, 323, 321, 319, 318, 314, 313, 309, 307, 299, 293, 289, 285, 273, 268, 262, 256, 246, 241, 236, 231, 225, 222, 219, 216, 212, 210, 208, 207, 206, 206, 206, 206, 206]","[1010, 1010, 1010, 1010, 1010, 1010, 1010, 1010, 1010, 1010, 1010, 1010, 1010, 1010, 1010, 1010, 1010, 1010, 1010, 1010, 1010, 1010, 1010, 1010, 1010, 1010, 1009, 1008, 1008, 1007, 1007, 1005, 1000, 994, 991, 984, 981, 975, 970, 963, 962, 959, 956, 953, 950, 947, 947, 946, 946, 946, 946, 946, 946, 946, 946, 946, 946, 946, 944, 944, 944, 944, 944, 944, 944, 944, 944, 944, 944, 944, 942, 942, 941, 941, 938, 936, 935, 935, 933, 931, 929, 928, 927, 923, 921, 918, 915, 904, 899, 892, 886, 876, 868, 861, 855, 841, 832, 824, 813, 790, 778, 754, 710, 654, 637, 627, 619, 603, 590, 581, 571, 551, 541, 533, 524, 513, 509, 503, 499, 491, 485, 479, 472, 458, 450, 443, 435, 422, 415, 408, 400, 384, 379, 374, 368, 359, 355, 351, 348, 337, 333, 327, 321, 310, 306, 301, 296, 286, 281, 278, 274, 267, 263, 259, 256, 250, 246, 242, 239, 232, 227, 224, 218, 210, 207, 204, 200, 195, 195, 194, 191, 190, 188, 187, 186, 183, 183, 181, 181, 179, 177, 176, 176, 173, 172, 169, 169, 167, 166, 165, 165, 162, 162, 160, 159, 158, 158, 156, 156, 155, 155, 154, 153, 153, 152, 152, 151, 148, 147, 145, 143, 140, 139, 137, 137, 135, 133, 132, 131, 128, 127, 125, 124, 119, 117, 115, 114, 109, 105, 103, 101, 98, 96, 95, 94, 92, 92, 91, 91, 90, 90, 90, 90, 90, 90, 90, 90, 90]"
"NoTrust","Teilnehmer A hat Ihnen keine 2 Punkte übermittelt.","Payback","0","undefined","2","0","0","60","1080","751","0","2","2488","0","legacy","[11, 21, 31, 41, 51, 61, 71, 81, 91, 101, 111, 121, 131, 141, 151, 161, 171, 181, 191, 201, 211, 221, 231, 241, 251, 261, 271, 281, 291, 301, 311, 321, 331, 341, 351, 361, 371, 381, 391, 401, 411, 421, 431, 441, 451, 461, 471, 481, 491, 501, 511, 521, 531, 541, 551, 561, 571, 581, 591, 601, 611, 621, 631, 641, 651, 661, 671, 681, 691, 701, 711, 721, 731, 741, 751, 761, 771, 781, 791, 801, 811, 821, 831, 841, 851, 861, 871, 881, 891, 901, 911, 921, 931, 941, 951, 961, 971, 981, 991, 1001, 1011, 1021, 1031, 1041, 1051, 1061, 1071, 1081, 1091, 1101, 1111, 1121, 1131, 1141, 1151, 1161, 1171, 1181, 1191, 1201, 1211, 1221, 1231, 1241, 1251, 1261, 1271, 1281, 1291, 1301, 1311, 1321, 1331, 1341, 1351, 1361, 1371, 1381, 1391, 1401, 1411, 1421, 1431, 1441, 1451, 1461, 1471, 1481, 1491, 1501, 1511, 1521, 1531, 1541, 1551, 1561, 1571, 1581, 1591, 1601, 1611, 1621, 1631, 1641, 1651, 1661, 1671, 1681, 1691, 1701, 1711, 1721, 1731, 1741, 1751, 1761, 1771, 1781, 1791, 1801, 1811, 1821, 1831, 1841, 1851, 1861, 1871, 1881, 1891, 1901, 1911, 1921, 1931, 1941, 1951, 1961, 1971, 1981, 1991, 2001, 2011, 2021, 2031, 2041, 2051, 2061, 2071, 2081, 2091, 2101, 2111, 2121, 2131, 2141, 2151, 2161, 2171, 2181, 2191, 2201, 2211, 2221, 2231, 2241, 2251, 2261, 2271, 2281, 2291, 2301, 2311, 2321, 2331, 2341, 2351, 2361, 2371, 2381, 2391, 2401, 2411, 2421, 2431, 2441, 2451, 2461, 2471, 2481]","1074","1920","[960, 960, 960, 960, 960, 960, 960, 960, 960, 960, 960, 960, 960, 960, 960, 960, 960, 960, 960, 960, 960, 959, 959, 959, 958, 958, 957, 956, 956, 954, 954, 949, 946, 942, 941, 936, 936, 933, 931, 928, 927, 927, 926, 924, 924, 923, 923, 922, 922, 922, 922, 922, 922, 922, 922, 922, 922, 922, 922, 922, 922, 922, 922, 922, 922, 922, 922, 922, 922, 922, 922, 921, 920, 920, 920, 920, 920, 920, 920, 920, 918, 918, 918, 918, 917, 917, 917, 917, 917, 917, 917, 916, 916, 914, 914, 914, 913, 908, 905, 895, 889, 883, 874, 857, 852, 850, 847, 839, 833, 828, 822, 809, 802, 796, 791, 784, 782, 779, 777, 774, 771, 769, 765, 759, 755, 750, 745, 736, 729, 724, 716, 697, 689, 682, 674, 662, 656, 651, 645, 631, 625, 617, 608, 593, 587, 581, 573, 560, 552, 547, 542, 533, 528, 523, 518, 507, 501, 496, 490, 477, 468, 462, 453, 439, 431, 427, 421, 413, 412, 409, 407, 403, 401, 398, 397, 394, 391, 390, 389, 387, 385, 384, 383, 379, 376, 372, 372, 367, 366, 365, 364, 361, 359, 358, 356, 355, 354, 353, 352, 351, 349, 349, 348, 348, 347, 347, 345, 342, 341, 338, 334, 331, 329, 327, 326, 323, 321, 319, 318, 314, 313, 309, 307, 299, 293, 289, 285, 273, 268, 262, 256, 246, 241, 236, 231, 225, 222, 219, 216, 212, 210, 208, 207, 206, 206, 206, 206, 206]","[1010, 1010, 1010, 1010, 1010, 1010, 1010, 1010, 1010, 1010, 1010, 1010, 1010, 1010, 1010, 1010, 1010, 1010, 1010, 1010, 1010, 1010, 1010, 1010, 1010, 1010, 1009, 1008, 1008, 1007, 1007, 1005, 1000, 994, 991, 984, 981, 975, 970, 963, 962, 959, 956, 953, 950, 947, 947, 946, 946, 946, 946, 946, 946, 946, 946, 946, 946, 946, 944, 944, 944, 944, 944, 944, 944, 944, 944, 944, 944, 944, 942, 942, 941, 941, 938, 936, 935, 935, 933, 931, 929, 928, 927, 923, 921, 918, 915, 904, 899, 892, 886, 876, 868, 861, 855, 841, 832, 824, 813, 790, 778, 754, 710, 654, 637, 627, 619, 603, 590, 581, 571, 551, 541, 533, 524, 513, 509, 503, 499, 491, 485, 479, 472, 458, 450, 443, 435, 422, 415, 408, 400, 384, 379, 374, 368, 359, 355, 351, 348, 337, 333, 327, 321, 310, 306, 301, 296, 286, 281, 278, 274, 267, 263, 259, 256, 250, 246, 242, 239, 232, 227, 224, 218, 210, 207, 204, 200, 195, 195, 194, 191, 190, 188, 187, 186, 183, 183, 181, 181, 179, 177, 176, 176, 173, 172, 169, 169, 167, 166, 165, 165, 162, 162, 160, 159, 158, 158, 156, 156, 155, 155, 154, 153, 153, 152, 152, 151, 148, 147, 145, 143, 140, 139, 137, 137, 135, 133, 132, 131, 128, 127, 125, 124, 119, 117, 115, 114, 109, 105, 103, 101, 98, 96, 95, 94, 92, 92, 91, 91, 90, 90, 90, 90, 90, 90, 90, 90, 90]"
"Promise","Wie oft werden Sie die Hälfte zurückgeben?","Promise","1","undefined","2","0","1","60","1080","321","0","1","1753","0","legacy","[11, 21, 31, 41, 51, 61, 71, 81, 91, 101, 111, 121, 131, 141, 151, 161, 171, 181, 191, 201, 211, 221, 231, 241, 251, 261, 271, 281, 291, 301, 311, 321, 331, 341, 351, 361, 371, 381, 391, 401, 411, 421, 431, 441, 451, 461, 471, 481, 491, 501, 511, 521, 531, 541, 551, 561, 571, 581, 591, 601, 611, 621, 631, 641, 651, 661, 671, 681, 691, 701, 711, 721, 731, 741, 751, 761, 771, 781, 791, 801, 811, 821, 831, 841, 851, 861, 871, 881, 891, 901, 911, 921, 931, 941, 951, 961, 971, 981, 991, 1001, 1011, 1021, 1031, 1041, 1051, 1061, 1071, 1081, 1091, 1101, 1111, 1121, 1131, 1141, 1151, 1161, 1171, 1181, 1191, 1201, 1211, 1221, 1231, 1241, 1251, 1261, 1271, 1281, 1291, 1301, 1311, 1321, 1331, 1341, 1351, 1361, 1371, 1381, 1391, 1401, 1411, 1421, 1431, 1441, 1451, 1461, 1471, 1481, 1491, 1501, 1511, 1521, 1531, 1541, 1551, 1561, 1571, 1581, 1591, 1601, 1611, 1621, 1631, 1641, 1651, 1661, 1671, 1681, 1691, 1701, 1711, 1721, 1731, 1741, 1751]","1074","1920","[960, 960, 960, 960, 960, 960, 960, 960, 960, 960, 960, 960, 960, 960, 960, 960, 960, 960, 960, 962, 964, 965, 969, 974, 978, 981, 989, 1000, 1006, 1010, 1015, 1020, 1021, 1024, 1025, 1028, 1030, 1032, 1035, 1039, 1042, 1044, 1045, 1048, 1049, 1049, 1051, 1053, 1054, 1054, 1056, 1059, 1061, 1063, 1066, 1071, 1073, 1076, 1078, 1081, 1085, 1088, 1091, 1099, 1104, 1110, 1117, 1129, 1133, 1137, 1141, 1144, 1153, 1158, 1162, 1168, 1182, 1189, 1194, 1203, 1214, 1221, 1227, 1235, 1248, 1256, 1264, 1272, 1293, 1300, 1309, 1319, 1338, 1349, 1359, 1373, 1396, 1407, 1417, 1425, 1441, 1453, 1462, 1469, 1486, 1496, 1507, 1515, 1534, 1544, 1553, 1560, 1578, 1586, 1595, 1602, 1617, 1628, 1635, 1645, 1658, 1665, 1669, 1675, 1684, 1687, 1692, 1695, 1705, 1708, 1713, 1718, 1727, 1729, 1733, 1736, 1739, 1739, 1740, 1741, 1741, 1741, 1742, 1742, 1744, 1744, 1744, 1745, 1746, 1746, 1747, 1747, 1747, 1747, 1749, 1749, 1749, 1749, 1750, 1750, 1750, 1750, 1751, 1752, 1752, 1752, 1752, 1752, 1752, 1753, 1753, 1753, 1753, 1753, 1753]","[1010, 1010, 1010, 1010, 1010, 1010, 1010, 1010, 1010, 1010, 1010, 1010, 1010, 1010, 1010, 1010, 1010, 1010, 1010, 1007, 1004, 1002, 998, 990, 985, 980, 973, 959, 952, 948, 942, 937, 933, 931, 929, 925, 922, 920, 915, 910, 905, 901, 897, 891, 889, 886, 881, 877, 875, 872, 868, 862, 858, 853, 847, 838, 833, 828, 821, 811, 802, 795, 788, 768, 756, 745, 732, 709, 699, 692, 682, 673, 655, 644, 636, 626, 604, 591, 582, 572, 557, 548, 540, 533, 515, 507, 498, 488, 470, 463, 456, 450, 436, 427, 418, 408, 392, 384, 376, 371, 359, 350, 344, 337, 326, 320, 312, 305, 293, 287, 281, 275, 262, 256, 250, 243, 231, 225, 219, 211, 202, 198, 194, 189, 181, 177, 174, 171, 163, 161, 157, 152, 144, 142, 139, 137, 135, 135, 134, 133, 132, 132, 132, 132, 130, 130, 129, 128, 126, 126, 126, 126, 124, 124, 123, 123, 122, 121, 120, 120, 119, 119, 119, 118, 118, 117, 117, 117, 116, 116, 116, 116, 116, 116, 116]"
"Trust","Teilnehmer A hat Ihnen 2 Punkte übermittelt.","Payback","0","undefined","3","0","1","60","1080","271","10","2","854","0","legacy","[11, 21, 31, 41, 51, 61, 71, 81, 91, 101, 111, 121, 131, 141, 151, 161, 171, 181, 191, 201, 211, 221, 231, 241, 251, 261, 271, 281, 291, 301, 311, 321, 331, 341, 351, 361, 371, 381, 391, 401, 411, 421, 431, 441, 451, 461, 471, 481, 491, 501, 511, 521, 531, 541, 551, 561, 571, 581, 591, 601, 611, 621, 631, 641, 651, 661, 671, 681, 691, 701, 711, 721, 731, 741, 751, 761, 771, 781, 791, 801, 811, 821, 831, 841, 851]","1074","1920","[960, 960, 960, 960, 960, 960, 960, 960, 960, 960, 955, 951, 945, 943, 931, 924, 916, 909, 895, 886, 875, 864, 851, 848, 846, 841, 823, 808, 792, 771, 728, 708, 694, 688, 675, 666, 656, 645, 623, 614, 597, 588, 573, 569, 567, 565, 557, 555, 551, 544, 525, 511, 500, 489, 471, 465, 458, 450, 432, 419, 404, 387, 354, 344, 332, 324, 307, 297, 287, 278, 263, 257, 248, 241, 230, 224, 220, 217, 214, 212, 212, 212, 212, 212, 212]","[1010, 1010, 1010, 1010, 1010, 1010, 1010, 1010, 1010, 1010, 1010, 1009, 1004, 999, 990, 983, 976, 970, 960, 956, 956, 956, 956, 956, 956, 954, 925, 900, 870, 827, 725, 680, 651, 635, 609, 592, 576, 552, 495, 469, 429, 408, 368, 355, 345, 338, 322, 315, 309, 301, 277, 262, 245, 228, 206, 198, 187, 179, 162, 153, 141, 130, 109, 101, 94, 89, 74, 69, 63, 61, 56, 54, 53, 52, 51, 51, 51, 51, 51, 50, 50, 49, 49, 49, 49]"
"Trust","Teilnehmer A hat Ihnen 2 Punkte übermittelt.","Payback","1","undefined","4","0","1","60","1080","251","5","1","943","0","legacy","[11, 21, 31, 41, 51, 61, 71, 81, 91, 101, 111, 121, 131, 141, 151, 161, 171, 181, 191, 201, 211, 221, 231, 241, 251, 261, 271, 281, 291, 301, 311, 321, 331, 341, 351, 361, 371, 381, 391, 401, 411, 421, 431, 441, 451, 461, 471, 481, 491, 501, 511, 521, 531, 541, 551, 561, 571, 581, 591, 601, 611, 621, 631, 641, 651, 661, 671, 681, 691, 701, 711, 721, 731, 741, 751, 761, 771, 781, 791, 801, 811, 821, 831, 841, 851, 861, 871, 881, 891, 901, 911, 921, 931, 941]","1074","1920","[960, 960, 960, 960, 960, 960, 960, 960, 960, 960, 960, 958, 957, 956, 956, 956, 956, 956, 956, 958, 960, 962, 963, 972, 977, 980, 985, 1028, 1052, 1080, 1109, 1160, 1179, 1203, 1228, 1261, 1272, 1286, 1298, 1313, 1318, 1323, 1330, 1338, 1342, 1347, 1351, 1361, 1368, 1374, 1381, 1400, 1410, 1416, 1426, 1439, 1447, 1453, 1458, 1469, 1475, 1484, 1490, 1501, 1504, 1508, 1513, 1522, 1528, 1534, 1539, 1557, 1568, 1583, 1594, 1622, 1638, 1650, 1664, 1688, 1699, 1710, 1723, 1742, 1752, 1759, 1765, 1771, 1773, 1776, 1776, 1776, 1776, 1776]","[1010, 1010, 1010, 1010, 1010, 1010, 1010, 1010, 1010, 1010, 1010, 1010, 1010, 1008, 1008, 1008, 1006, 1003, 1002, 997, 991, 985, 975, 953, 936, 924, 910, 853, 820, 778, 741, 671, 643, 610, 573, 516, 492, 473, 451, 422, 413, 402, 390, 369, 358, 349, 341, 324, 314, 305, 296, 272, 261, 252, 241, 225, 216, 207, 202, 189, 184, 178, 172, 164, 163, 160, 158, 154, 150, 149, 147, 140, 138, 132, 129, 122, 117, 112, 109, 103, 98, 95, 93, 87, 84, 82, 79, 76, 75, 73, 73, 73, 73, 73]"
"Trust","Teilnehmer A hat Ihnen 2 Punkte übermittelt.","Payback","1","undefined","5","0","1","60","1080","231","5","1","838","0","legacy","[11, 21, 31, 41, 51, 61, 71, 81, 91, 101, 111, 121, 131, 141, 151, 161, 171, 181, 191, 201, 211, 221, 231, 241, 251, 261, 271, 281, 291, 301, 311, 321, 331, 341, 351, 361, 371, 381, 391, 401, 411, 421, 431, 441, 451, 461, 471, 481, 491, 501, 511, 521, 531, 541, 551, 561, 571, 581, 591, 601, 611, 621, 631, 641, 651, 661, 671, 681, 691, 701, 711, 721, 731, 741, 751, 761, 771, 781, 791, 801, 811, 821, 831]","1074","1920","[960, 960, 960, 960, 960, 960, 960, 960, 960, 961, 961, 961, 961, 962, 963, 965, 966, 969, 977, 984, 997, 1007, 1034, 1048, 1057, 1070, 1094, 1106, 1121, 1135, 1163, 1180, 1189, 1200, 1226, 1235, 1249, 1258, 1277, 1287, 1295, 1305, 1325, 1332, 1341, 1353, 1372, 1381, 1389, 1399, 1417, 1422, 1430, 1436, 1445, 1451, 1459, 1466, 1479, 1485, 1492, 1502, 1525, 1536, 1549, 1565, 1598, 1617, 1630, 1648, 1679, 1693, 1710, 1721, 1742, 1751, 1758, 1763, 1770, 1773, 1774, 1776, 1776]","[1010, 1010, 1010, 1010, 1010, 1010, 1010, 1010, 1010, 1010, 1007, 1006, 1005, 1003, 1001, 997, 994, 989, 976, 967, 954, 944, 918, 905, 895, 880, 851, 836, 811, 779, 700, 660, 627, 588, 518, 492, 465, 442, 400, 384, 368, 354, 328, 317, 305, 290, 266, 256, 247, 235, 216, 209, 202, 196, 186, 183, 178, 173, 164, 160, 157, 150, 138, 133, 129, 123, 113, 107, 105, 99, 91, 86, 81, 79, 73, 69, 66, 64, 60, 58, 58, 58, 57]"
"Promise","Wie oft werden Sie die Hälfte zurückgeben?","Promise","1","undefined","5","0","2","60","1080","241","5","1","769","0","legacy","[11, 21, 31, 41, 51, 61, 71, 81, 91, 101, 111, 121, 131, 141, 151, 161, 171, 181, 191, 201, 211, 221, 231, 241, 251, 261, 271, 281, 291, 301, 311, 321, 331, 341, 351, 361, 371, 381, 391, 401, 411, 421, 431, 441, 451, 461, 471, 481, 491, 501, 511, 521, 531, 541, 551, 561, 571, 581, 591, 601, 611, 621, 631, 641, 651, 661, 671, 681, 691, 701, 711, 721, 731, 741, 751, 761]","1074","1920","[960, 960, 960, 960, 960, 960, 960, 960, 960, 960, 960, 960, 960, 960, 960, 960, 960, 960, 960, 961, 968, 976, 990, 1005, 1052, 1084, 1113, 1139, 1210, 1250, 1281, 1318, 1377, 1403, 1434, 1459, 1497, 1508, 1522, 1532, 1550, 1558, 1565, 1570, 1582, 1587, 1595, 1601, 1611, 1616, 1622, 1630, 1637, 1640, 1643, 1647, 1658, 1666, 1674, 1681, 1697, 1702, 1708, 1711, 1719, 1721, 1723, 1725, 1729, 1732, 1732, 1734, 1738, 1739, 1740, 1741]","[1010, 1010, 1010, 1010, 1010, 1010, 1010, 1010, 1010, 1010, 1010, 1010, 1010, 1010, 1010, 1010, 1010, 1010, 1009, 1006, 991, 974, 945, 903, 800, 746, 694, 650, 550, 499, 462, 429, 386, 367, 344, 327, 297, 288, 277, 270, 257, 254, 250, 246, 236, 234, 228, 223, 213, 209, 204, 198, 191, 189, 185, 182, 170, 163, 157, 148, 133, 128, 122, 117, 106, 103, 99, 94, 87, 82, 79, 75, 67, 64, 62, 60]"
"Trust","Teilnehmer A hat Ihnen 2 Punkte übermittelt.","Payback","1","undefined","6","0","2","60","1080","271","5","1","1518","0","legacy","[11, 21, 31, 41, 51, 61, 71, 81, 91, 101, 111, 121, 131, 141, 151, 161, 171, 181, 191, 201, 211, 221, 231, 241, 251, 261, 271, 281, 291, 301, 311, 321, 331, 341, 351, 361, 371, 381, 391, 401, 411, 421, 431, 441, 451, 461, 471, 481, 491, 501, 511, 521, 531, 541, 551, 561, 571, 581, 591, 601, 611, 621, 631, 641, 651, 661, 671, 681, 691, 701, 711, 721, 731, 741, 751, 761, 771, 781, 791, 801, 811, 821, 831, 841, 851, 861, 871, 881, 891, 901, 911, 921, 931, 941, 951, 961, 971, 981, 991, 1001, 1011, 1021, 1031, 1041, 1051, 1061, 1071, 1081, 1091, 1101, 1111, 1121, 1131, 1141, 1151, 1161, 1171, 1181, 1191, 1201, 1211, 1221, 1231, 1241, 1251, 1261, 1271, 1281, 1291, 1301, 1311, 1321, 1331, 1341, 1351, 1361, 1371, 1381, 1391, 1401, 1411, 1421, 1431, 1441, 1451, 1461, 1471, 1481, 1491, 1501, 1511]","1074","1920","[960, 960, 960, 960, 960, 960, 960, 960, 960, 960, 960, 960, 960, 960, 959, 958, 958, 958, 958, 958, 961, 962, 965, 966, 969, 973, 978, 983, 992, 1000, 1015, 1023, 1030, 1038, 1055, 1062, 1070, 1077, 1091, 1100, 1106, 1113, 1130, 1137, 1143, 1150, 1162, 1168, 1175, 1181, 1193, 1199, 1204, 1210, 1221, 1228, 1240, 1255, 1280, 1294, 1309, 1324, 1355, 1370, 1387, 1401, 1429, 1443, 1458, 1471, 1496, 1506, 1514, 1524, 1541, 1550, 1555, 1561, 1567, 1569, 1573, 1574, 1579, 1582, 1584, 1586, 1594, 1595, 1597, 1600, 1604, 1606, 1610, 1615, 1626, 1632, 1637, 1644, 1659, 1669, 1674, 1680, 1690, 1693, 1698, 1702, 1710, 1715, 1719, 1722, 1733, 1736, 1739, 1739, 1741, 1741, 1741, 1742, 1742, 1742, 1742, 1742, 1742, 1742, 1742, 1742, 1742, 1742, 1742, 1742, 1742, 1742, 1742, 1742, 1742, 1742, 1742, 1742, 1742, 1742, 1742, 1742, 1742, 1742, 1742, 1742, 1742, 1742, 1742, 1742, 1742]","[1010, 1010, 1010, 1010, 1010, 1010, 1010, 1010, 1010, 1010, 1010, 1010, 1010, 1010, 1006, 1003, 1002, 1000, 994, 991, 985, 982, 973, 967, 959, 951, 934, 925, 912, 902, 879, 870, 861, 852, 833, 825, 816, 807, 789, 779, 771, 763, 742, 733, 726, 718, 703, 695, 688, 680, 665, 657, 649, 641, 621, 608, 589, 568, 532, 517, 499, 481, 445, 427, 407, 391, 356, 341, 323, 310, 287, 277, 269, 260, 243, 234, 228, 222, 217, 213, 209, 208, 203, 201, 198, 196, 191, 189, 187, 184, 180, 177, 174, 170, 160, 153, 148, 143, 132, 124, 121, 116, 110, 107, 103, 99, 92, 90, 86, 84, 76, 75, 73, 72, 71, 69, 69, 69, 69, 69, 69, 69, 69, 69, 69, 69, 69, 69, 69, 69, 69, 69, 69, 69, 69, 69, 69, 69, 69, 69, 69, 69, 69, 69, 69, 69, 69, 69, 69, 69, 69]"
"Trust","Teilnehmer A hat Ihnen 2 Punkte übermittelt.","Payback","0","undefined","7","0","2","60","1080","191","10","2","1181","0","legacy","[11, 21, 31, 41, 51, 61, 71, 81, 91, 101, 111, 121, 131, 141, 151, 161, 171, 181, 191, 201, 211, 221, 231, 241, 251, 261, 271, 281, 291, 301, 311, 321, 331, 341, 351, 361, 371, 381, 391, 401, 411, 421, 431, 441, 451, 461, 471, 481, 491, 501, 511, 521, 531, 541, 551, 561, 571, 581, 591, 601, 611, 621, 631, 641, 651, 661, 671, 681, 691, 701, 711, 721, 731, 741, 751, 761, 771, 781, 791, 801, 811, 821, 831, 841, 851, 861, 871, 881, 891, 901, 911, 921, 931, 941, 951, 961, 971, 981, 991, 1001, 1011, 1021, 1031, 1041, 1051, 1061, 1071, 1081, 1091, 1101, 1111, 1121, 1131, 1141, 1151, 1161, 1171, 1181]","1074","1920","[960, 960, 960, 960, 960, 960, 960, 960, 960, 959, 958, 957, 955, 953, 947, 943, 940, 936, 930, 927, 925, 922, 915, 909, 905, 902, 896, 893, 887, 881, 870, 864, 852, 840, 824, 819, 812, 805, 790, 783, 775, 769, 757, 750, 744, 737, 707, 698, 689, 682, 666, 659, 648, 637, 622, 615, 609, 602, 587, 576, 567, 555, 534, 520, 510, 497, 469, 457, 443, 429, 395, 380, 365, 348, 316, 299, 286, 274, 253, 243, 236, 229, 220, 217, 212, 209, 204, 201, 201, 199, 196, 194, 192, 190, 185, 184, 183, 181, 179, 178, 178, 178, 178, 178, 178, 178, 178, 178, 178, 178, 178, 178, 178, 178, 178, 178, 178, 178]","[1010, 1010, 1010, 1010, 1010, 1010, 1010, 1010, 1010, 1010, 1005, 1002, 997, 995, 983, 969, 957, 944, 922, 912, 905, 896, 876, 863, 852, 842, 823, 813, 798, 786, 754, 737, 715, 696, 665, 654, 641, 630, 610, 599, 588, 579, 561, 551, 540, 514, 452, 429, 411, 397, 373, 362, 350, 336, 318, 310, 303, 295, 284, 276, 271, 264, 254, 248, 244, 241, 234, 229, 226, 221, 211, 206, 200, 194, 184, 179, 176, 172, 167, 163, 161, 157, 152, 148, 144, 143, 138, 135, 135, 133, 129, 127, 124, 123, 119, 118, 116, 115, 114, 113, 113, 113, 113, 113, 113, 113, 113, 113, 113, 113, 113, 113, 113, 113, 113, 113, 113, 113]"
"NoTrust","Teilnehmer A hat Ihnen keine 2 Punkte übermittelt.","Payback","0","undefined","8","0","2","60","1080","191","0","2","1181","0","legacy","[11, 21, 31, 41, 51, 61, 71, 81, 91, 101, 111, 121, 131, 141, 151, 161, 171, 181, 191, 201, 211, 221, 231, 241, 251, 261, 271, 281, 291, 301, 311, 321, 331, 341, 351, 361, 371, 381, 391, 401, 411, 421, 431, 441, 451, 461, 471, 481, 491, 501, 511, 521, 531, 541, 551, 561, 571, 581, 591, 601, 611, 621, 631, 641, 651, 661, 671, 681, 691, 701, 711, 721, 731, 741, 751, 761, 771, 781, 791, 801, 811, 821, 831, 841, 851, 861, 871, 881, 891, 901, 911, 921, 931, 941, 951, 961, 971, 981, 991, 1001, 1011, 1021, 1031, 1041, 1051, 1061, 1071, 1081, 1091, 1101, 1111, 1121, 1131, 1141, 1151, 1161, 1171, 1181]","1074","1920","[960, 960, 960, 960, 960, 960, 960, 960, 960, 959, 958, 957, 955, 953, 947, 943, 940, 936, 930, 927, 925, 922, 915, 909, 905, 902, 896, 893, 887, 881, 870, 864, 852, 840, 824, 819, 812, 805, 790, 783, 775, 769, 757, 750, 744, 737, 707, 698, 689, 682, 666, 659, 648, 637, 622, 615, 609, 602, 587, 576, 567, 555, 534, 520, 510, 497, 469, 457, 443, 429, 395, 380, 365, 348, 316, 299, 286, 274, 253, 243, 236, 229, 220, 217, 212, 209, 204, 201, 201, 199, 196, 194, 192, 190, 185, 184, 183, 181, 179, 178, 178, 178, 178, 178, 178, 178, 178, 178, 178, 178, 178, 178, 178, 178, 178, 178, 178, 178]","[1010, 1010, 1010, 1010, 1010, 1010, 1010, 1010, 1010, 1010, 1005, 1002, 997, 995, 983, 969, 957, 944, 922, 912, 905, 896, 876, 863, 852, 842, 823, 813, 798, 786, 754, 737, 715, 696, 665, 654, 641, 630, 610, 599, 588, 579, 561, 551, 540, 514, 452, 429, 411, 397, 373, 362, 350, 336, 318, 310, 303, 295, 284, 276, 271, 264, 254, 248, 244, 241, 234, 229, 226, 221, 211, 206, 200, 194, 184, 179, 176, 172, 167, 163, 161, 157, 152, 148, 144, 143, 138, 135, 135, 133, 129, 127, 124, 123, 119, 118, 116, 115, 114, 113, 113, 113, 113, 113, 113, 113, 113, 113, 113, 113, 113, 113, 113, 113, 113, 113, 113, 113]"
"Promise","Wie oft werden Sie die Hälfte zurückgeben?","Promise","1","undefined","8","0","3","60","1080","331","0","1","1105","0","legacy","[11, 21, 31, 41, 51, 61, 71, 81, 91, 101, 111, 121, 131, 141, 151, 161, 171, 181, 191, 201, 211, 221, 231, 241, 251, 261, 271, 281, 291, 301, 311, 321, 331, 341, 351, 361, 371, 381, 391, 401, 411, 421, 431, 441, 451, 461, 471, 481, 491, 501, 511, 521, 531, 541, 551, 561, 571, 581, 591, 601, 611, 621, 631, 641, 651, 661, 671, 681, 691, 701, 711, 721, 731, 741, 751, 761, 771, 781, 791, 801, 811, 821, 831, 841, 851, 861, 871, 881, 891, 901, 911, 921, 931, 941, 951, 961, 971, 981, 991, 1001, 1011, 1021, 1031, 1041, 1051, 1061, 1071, 1081, 1091, 1101]","1074","1920","[960, 960, 960, 960, 960, 960, 960, 960, 960, 960, 959, 958, 958, 958, 958, 958, 958, 958, 958, 957, 954, 954, 953, 953, 952, 952, 952, 952, 952, 952, 953, 956, 973, 983, 999, 1015, 1042, 1055, 1071, 1086, 1109, 1117, 1124, 1132, 1148, 1159, 1167, 1175, 1190, 1197, 1204, 1209, 1232, 1255, 1271, 1283, 1305, 1322, 1335, 1352, 1375, 1386, 1393, 1404, 1421, 1433, 1442, 1450, 1465, 1473, 1481, 1487, 1501, 1508, 1514, 1522, 1536, 1541, 1548, 1553, 1560, 1562, 1567, 1570, 1580, 1587, 1593, 1600, 1617, 1625, 1632, 1640, 1655, 1663, 1669, 1677, 1691, 1698, 1705, 1711, 1727, 1734, 1740, 1745, 1753, 1756, 1757, 1758, 1758, 1758]","[1010, 1010, 1010, 1010, 1010, 1010, 1010, 1010, 1010, 1010, 1010, 1010, 1010, 1010, 1010, 1010, 1010, 1010, 1010, 1010, 999, 992, 986, 982, 972, 968, 964, 961, 955, 952, 949, 943, 921, 907, 884, 864, 827, 810, 792, 774, 742, 731, 721, 710, 689, 677, 665, 654, 631, 622, 613, 603, 568, 546, 530, 515, 492, 479, 466, 455, 433, 423, 414, 402, 384, 373, 365, 357, 337, 325, 315, 305, 285, 274, 265, 257, 236, 229, 221, 216, 206, 203, 198, 193, 182, 178, 171, 165, 150, 145, 136, 129, 116, 107, 101, 93, 80, 75, 69, 63, 51, 47, 42, 39, 33, 31, 30, 29, 28, 28]"
"Trust","Teilnehmer A hat Ihnen 2 Punkte übermittelt.","Payback","1","undefined","9","0","3","60","1080","331","5","1","1046","0","legacy","[11, 21, 31, 41, 51, 61, 71, 81, 91, 101, 111, 121, 131, 141, 151, 161, 171, 181, 191, 201, 211, 221, 231, 241, 251, 261, 271, 281, 291, 301, 311, 321, 331, 341, 351, 361, 371, 381, 391, 401, 411, 421, 431, 441, 451, 461, 471, 481, 491, 501, 511, 521, 531, 541, 551, 561, 571, 581, 591, 601, 611, 621, 631, 641, 651, 661, 671, 681, 691, 701, 711, 721, 731, 741, 751, 761, 771, 781, 791, 801, 811, 821, 831, 841, 851, 861, 871, 881, 891, 901, 911, 921, 931, 941, 951, 961, 971, 981, 991, 1001, 1011, 1021, 1031, 1041]","1074","1920","[960, 960, 960, 960, 960, 960, 960, 960, 960, 960, 960, 960, 960, 960, 960, 960, 960, 960, 960, 960, 960, 960, 960, 960, 963, 968, 976, 981, 988, 996, 1009, 1024, 1046, 1082, 1137, 1165, 1187, 1209, 1244, 1258, 1271, 1284, 1301, 1308, 1317, 1325, 1342, 1349, 1355, 1362, 1377, 1389, 1398, 1409, 1426, 1433, 1440, 1448, 1464, 1471, 1480, 1488, 1501, 1504, 1507, 1508, 1516, 1518, 1521, 1524, 1533, 1538, 1542, 1546, 1554, 1558, 1562, 1566, 1577, 1586, 1594, 1602, 1621, 1632, 1641, 1649, 1667, 1676, 1684, 1692, 1704, 1706, 1711, 1712, 1715, 1716, 1717, 1717, 1719, 1719, 1720, 1720, 1720, 1720]","[1010, 1010, 1010, 1010, 1010, 1010, 1010, 1010, 1010, 1010, 1010, 1010, 1010, 1010, 1010, 1010, 1010, 1010, 1010, 1010, 1010, 1010, 1010, 1010, 1010, 1006, 993, 984, 974, 964, 950, 941, 927, 904, 847, 813, 782, 749, 684, 660, 635, 614, 588, 577, 565, 556, 535, 528, 520, 509, 487, 471, 457, 441, 411, 400, 387, 375, 353, 343, 333, 323, 307, 303, 297, 292, 280, 275, 270, 264, 252, 244, 239, 232, 221, 217, 211, 207, 196, 189, 185, 178, 165, 156, 149, 142, 130, 124, 118, 112, 102, 100, 96, 95, 91, 90, 89, 88, 86, 86, 85, 85, 85, 85]"
"Trust","Teilnehmer A hat Ihnen 2 Punkte übermittelt.","Payback","1","undefined","10","0","3","60","1080","281","5","1","1270","0","legacy","[11, 21, 31, 41, 51, 61, 71, 81, 91, 101, 111, 121, 131, 141, 151, 161, 171, 181, 191, 201, 211, 221, 231, 241, 251, 261, 271, 281, 291, 301, 311, 321, 331, 341, 351, 361, 371, 381, 391, 401, 411, 421, 431, 441, 451, 461, 471, 481, 491, 501, 511, 521, 531, 541, 551, 561, 571, 581, 591, 601, 611, 621, 631, 641, 651, 661, 671, 681, 691, 701, 711, 721, 731, 741, 751, 761, 771, 781, 791, 801, 811, 821, 831, 841, 851, 861, 871, 881, 891, 901, 911, 921, 931, 941, 951, 961, 971, 981, 991, 1001, 1011, 1021, 1031, 1041, 1051, 1061, 1071, 1081, 1091, 1101, 1111, 1121, 1131, 1141, 1151, 1161, 1171, 1181, 1191, 1201, 1211, 1221, 1231, 1241, 1251, 1261]","1074","1920","[960, 960, 960, 960, 960, 960, 960, 960, 960, 960, 960, 960, 960, 960, 960, 960, 960, 960, 960, 960, 963, 966, 977, 985, 995, 1004, 1026, 1039, 1057, 1064, 1082, 1093, 1104, 1114, 1132, 1139, 1147, 1156, 1172, 1181, 1192, 1205, 1225, 1233, 1243, 1251, 1263, 1271, 1277, 1287, 1303, 1311, 1319, 1329, 1348, 1361, 1369, 1377, 1395, 1405, 1412, 1419, 1435, 1443, 1450, 1457, 1471, 1473, 1477, 1482, 1488, 1491, 1495, 1499, 1511, 1519, 1526, 1537, 1556, 1566, 1575, 1585, 1608, 1620, 1633, 1643, 1676, 1688, 1699, 1713, 1732, 1738, 1744, 1749, 1754, 1754, 1757, 1757, 1758, 1759, 1759, 1759, 1759, 1759, 1759, 1759, 1759, 1759, 1759, 1759, 1759, 1759, 1759, 1759, 1759, 1759, 1759, 1759, 1759, 1759, 1759, 1759, 1759, 1759, 1759, 1759]","[1010, 1010, 1010, 1010, 1010, 1010, 1010, 1010, 1010, 1010, 1010, 1010, 1010, 1010, 1010, 1010, 1010, 1010, 1010, 1010, 1009, 1005, 998, 993, 984, 975, 946, 933, 912, 899, 873, 855, 841, 827, 801, 788, 772, 752, 713, 697, 676, 659, 625, 614, 602, 591, 569, 556, 546, 534, 512, 501, 489, 476, 454, 438, 427, 417, 394, 382, 374, 365, 348, 337, 328, 321, 304, 301, 296, 291, 284, 279, 274, 270, 259, 253, 248, 241, 228, 221, 214, 207, 192, 184, 174, 169, 146, 136, 128, 119, 106, 101, 97, 93, 89, 88, 86, 86, 85, 84, 84, 84, 84, 84, 84, 84, 84, 84, 84, 84, 84, 84, 84, 84, 84, 84, 84, 84, 84, 84, 84, 84, 84, 84, 84, 84]"
"Trust","Teilnehmer A hat Ihnen 2 Punkte übermittelt.","Payback","0","undefined","11","0","3","60","1080","211","10","2","910","0","legacy","[11, 21, 31, 41, 51, 61, 71, 81, 91, 101, 111, 121, 131, 141, 151, 161, 171, 181, 191, 201, 211, 221, 231, 241, 251, 261, 271, 281, 291, 301, 311, 321, 331, 341, 351, 361, 371, 381, 391, 401, 411, 421, 431, 441, 451, 461, 471, 481, 491, 501, 511, 521, 531, 541, 551, 561, 571, 581, 591, 601, 611, 621, 631, 641, 651, 661, 671, 681, 691, 701, 711, 721, 731, 741, 751, 761, 771, 781, 791, 801, 811, 821, 831, 841, 851, 861, 871, 881, 891, 901]","1074","1920","[960, 960, 960, 960, 960, 960, 960, 960, 960, 960, 960, 960, 960, 956, 950, 946, 941, 935, 919, 911, 902, 892, 873, 865, 857, 851, 846, 842, 836, 834, 821, 812, 805, 792, 769, 758, 752, 747, 739, 735, 729, 723, 709, 700, 683, 666, 628, 607, 586, 569, 542, 530, 518, 508, 489, 478, 468, 460, 445, 439, 431, 423, 410, 404, 395, 389, 370, 360, 347, 336, 309, 297, 285, 275, 257, 246, 238, 227, 216, 210, 210, 207, 205, 205, 205, 205, 204, 204, 204, 204]","[1010, 1010, 1010, 1010, 1010, 1010, 1010, 1010, 1010, 1010, 1010, 1010, 1009, 1003, 991, 984, 976, 969, 948, 940, 930, 920, 904, 898, 893, 888, 873, 863, 851, 837, 799, 778, 755, 719, 630, 591, 572, 557, 534, 522, 508, 495, 454, 434, 406, 381, 335, 315, 298, 283, 263, 253, 245, 239, 224, 216, 209, 203, 193, 189, 186, 181, 176, 173, 170, 168, 158, 153, 147, 142, 130, 128, 124, 120, 114, 109, 106, 102, 97, 94, 93, 92, 91, 90, 90, 90, 90, 89, 89, 89]"
"Promise","Wie oft werden Sie die Hälfte zurückgeben?","Promise","1","undefined","11","0","4","60","1080","171","10","1","800","0","legacy","[11, 21, 31, 41, 51, 61, 71, 81, 91, 101, 111, 121, 131, 141, 151, 161, 171, 181, 191, 201, 211, 221, 231, 241, 251, 261, 271, 281, 291, 301, 311, 321, 331, 341, 351, 361, 371, 381, 391, 401, 411, 421, 431, 441, 451, 461, 471, 481, 491, 501, 511, 521, 531, 541, 551, 561, 571, 581, 591, 601, 611, 621, 631, 641, 651, 661, 671, 681, 691, 701, 711, 721, 731, 741, 751, 761, 771, 781, 791]","1074","1920","[960, 960, 960, 960, 960, 960, 960, 960, 960, 960, 960, 960, 960, 962, 970, 992, 1014, 1038, 1069, 1136, 1178, 1221, 1261, 1340, 1380, 1413, 1444, 1493, 1512, 1536, 1553, 1575, 1582, 1586, 1592, 1599, 1604, 1607, 1610, 1617, 1623, 1628, 1635, 1644, 1650, 1654, 1657, 1662, 1663, 1664, 1665, 1667, 1669, 1669, 1672, 1679, 1684, 1690, 1693, 1701, 1704, 1710, 1713, 1722, 1727, 1728, 1731, 1734, 1735, 1736, 1736, 1736, 1736, 1736, 1736, 1736, 1736, 1736, 1736]","[1010, 1010, 1010, 1010, 1010, 1010, 1010, 1010, 1010, 1010, 1010, 1010, 1010, 1007, 998, 969, 936, 905, 855, 763, 715, 661, 608, 494, 444, 397, 352, 280, 242, 209, 181, 145, 134, 121, 111, 91, 84, 77, 69, 56, 47, 38, 32, 20, 12, 8, 6, 1, 0, 0, 0, 0, 0, 0, 0, 0, 1, 2, 4, 6, 6, 9, 10, 14, 15, 16, 17, 19, 19, 19, 19, 19, 19, 19, 19, 19, 19, 19, 19]"
"Trust","Teilnehmer A hat Ihnen 2 Punkte übermittelt.","Payback","1","undefined","12","0","4","60","1080","721","5","1","2854","0","legacy","[11, 21, 31, 41, 51, 61, 71, 81, 91, 101, 111, 121, 131, 141, 151, 161, 171, 181, 191, 201, 211, 221, 231, 241, 251, 261, 271, 281, 291, 301, 311, 321, 331, 341, 351, 361, 371, 381, 391, 401, 411, 421, 431, 441, 451, 461, 471, 481, 491, 501, 511, 521, 531, 541, 551, 561, 571, 581, 591, 601, 611, 621, 631, 641, 651, 661, 671, 681, 691, 701, 711, 721, 731, 741, 751, 761, 771, 781, 791, 801, 811, 821, 831, 841, 851, 861, 871, 881, 891, 901, 911, 921, 931, 941, 951, 961, 971, 981, 991, 1001, 1011, 1021, 1031, 1041, 1051, 1061, 1071, 1081, 1091, 1101, 1111, 1121, 1131, 1141, 1151, 1161, 1171, 1181, 1191, 1201, 1211, 1221, 1231, 1241, 1251, 1261, 1271, 1281, 1291, 1301, 1311, 1321, 1331, 1341, 1351, 1361, 1371, 1381, 1391, 1401, 1411, 1421, 1431, 1441, 1451, 1461, 1471, 1481, 1491, 1501, 1511, 1521, 1531, 1541, 1551, 1561, 1571, 1581, 1591, 1601, 1611, 1621, 1631, 1641, 1651, 1661, 1671, 1681, 1691, 1701, 1711, 1721, 1731, 1741, 1751, 1761, 1771, 1781, 1791, 1801, 1811, 1821, 1831, 1841, 1851, 1861, 1871, 1881, 1891, 1901, 1911, 1921, 1931, 1941, 1951, 1961, 1971, 1981, 1991, 2001, 2011, 2021, 2031, 2041, 2051, 2061, 2071, 2081, 2091, 2101, 2111, 2121, 2131, 2141, 2151, 2161, 2171, 2181, 2191, 2201, 2211, 2221, 2231, 2241, 2251, 2261, 2271, 2281, 2291, 2301, 2311, 2321, 2331, 2341, 2351, 2361, 2371, 2381, 2391, 2401, 2411, 2421, 2431, 2441, 2451, 2461, 2471, 2481, 2491, 2501, 2511, 2521, 2531, 2541, 2551, 2561, 2571, 2581, 2591, 2601, 2611, 2621, 2631, 2641, 2651, 2661, 2671, 2681, 2691, 2701, 2711, 2721, 2731, 2741, 2751, 2761, 2771, 2781, 2791, 2801, 2811, 2821, 2831, 2841, 2851]","1074","1920","[960, 960, 960, 960, 960, 960, 960, 960, 960, 960, 961, 961, 962, 962, 962, 962, 962, 962, 963, 963, 963, 964, 964, 965, 965, 966, 966, 966, 966, 966, 966, 966, 966, 966, 966, 966, 966, 966, 966, 966, 966, 966, 966, 966, 966, 966, 966, 966, 966, 966, 966, 966, 966, 966, 966, 966, 966, 966, 966, 966, 966, 966, 966, 966, 966, 966, 966, 966, 966, 966, 969, 970, 970, 972, 974, 982, 988, 997, 1016, 1025, 1035, 1043, 1061, 1073, 1080, 1087, 1101, 1107, 1113, 1119, 1132, 1138, 1143, 1150, 1161, 1167, 1175, 1182, 1194, 1199, 1205, 1211, 1221, 1226, 1231, 1238, 1250, 1257, 1262, 1268, 1273, 1276, 1281, 1284, 1289, 1291, 1292, 1294, 1301, 1304, 1306, 1310, 1318, 1323, 1325, 1330, 1339, 1342, 1346, 1351, 1357, 1360, 1362, 1364, 1369, 1373, 1379, 1384, 1399, 1408, 1419, 1432, 1454, 1464, 1473, 1481, 1498, 1506, 1516, 1525, 1543, 1553, 1561, 1570, 1584, 1593, 1601, 1610, 1620, 1626, 1632, 1640, 1652, 1657, 1662, 1666, 1671, 1674, 1676, 1679, 1687, 1691, 1697, 1702, 1710, 1715, 1719, 1722, 1727, 1731, 1731, 1734, 1737, 1738, 1739, 1742, 1744, 1745, 1746, 1746, 1749, 1749, 1749, 1749, 1750, 1751, 1751, 1751, 1751, 1751, 1751, 1751, 1751, 1751, 1751, 1751, 1751, 1751, 1752, 1752, 1752, 1752, 1752, 1752, 1752, 1752, 1752, 1752, 1752, 1752, 1752, 1752, 1752, 1752, 1752, 1752, 1752, 1752, 1752, 1752, 1752, 1752, 1752, 1752, 1752, 1752, 1752, 1752, 1752, 1752, 1752, 1752, 1752, 1752, 1752, 1752, 1752, 1752, 1752, 1752, 1752, 1752, 1752, 1752, 1752, 1752, 1752, 1752, 1752, 1752, 1752, 1752, 1752, 1752, 1752, 1752, 1752, 1752, 1752, 1752, 1752, 1752, 1752, 1752, 1752, 1752, 1752, 1752, 1752, 1752, 1752, 1752, 1752, 1752, 1752]","[1010, 1010, 1010, 1010, 1010, 1010, 1010, 1010, 1010, 1010, 1009, 1008, 1007, 1004, 1004, 1003, 1003, 1002, 1002, 1002, 1001, 1000, 997, 995, 992, 989, 984, 981, 980, 980, 978, 978, 978, 978, 978, 978, 978, 978, 978, 978, 978, 978, 978, 978, 978, 978, 978, 978, 978, 978, 978, 978, 978, 978, 978, 978, 978, 978, 978, 978, 978, 977, 975, 973, 971, 968, 960, 956, 953, 949, 941, 938, 935, 933, 928, 920, 914, 905, 885, 873, 861, 851, 825, 808, 795, 781, 758, 749, 739, 727, 704, 694, 684, 673, 653, 641, 631, 621, 605, 596, 588, 581, 567, 559, 552, 542, 524, 515, 509, 501, 492, 487, 482, 478, 471, 469, 467, 464, 456, 452, 450, 446, 436, 431, 429, 424, 417, 414, 410, 407, 401, 398, 397, 395, 391, 388, 385, 381, 370, 363, 355, 347, 331, 324, 317, 311, 299, 293, 286, 280, 266, 260, 253, 245, 236, 228, 221, 215, 207, 200, 195, 190, 181, 178, 173, 169, 165, 162, 159, 158, 151, 149, 143, 140, 133, 130, 127, 124, 119, 115, 114, 112, 107, 105, 102, 100, 97, 95, 93, 92, 89, 88, 87, 87, 86, 85, 84, 84, 84, 84, 84, 84, 84, 84, 84, 84, 84, 84, 84, 84, 84, 84, 84, 84, 84, 84, 84, 84, 84, 84, 84, 84, 84, 84, 84, 84, 84, 84, 84, 84, 84, 84, 84, 84, 84, 84, 84, 84, 84, 84, 84, 84, 84, 84, 84, 84, 84, 84, 84, 84, 84, 84, 84, 84, 84, 84, 84, 84, 84, 84, 84, 84, 84, 84, 84, 84, 84, 84, 84, 84, 84, 84, 84, 84, 84, 84, 84, 84, 84, 84, 84, 84, 84, 84, 84]"
"Trust","Teilnehmer A hat Ihnen 2 Punkte übermittelt.","Payback","1","undefined","13","0","4","60","1080","541","5","1","1262","0","legacy","[11, 21, 31, 41, 51, 61, 71, 81, 91, 101, 111, 121, 131, 141, 151, 161, 171, 181, 191, 201, 211, 221, 231, 241, 251, 261, 271, 281, 291, 301, 311, 321, 331, 341, 351, 361, 371, 381, 391, 401, 411, 421, 431, 441, 451, 461, 471, 481, 491, 501, 511, 521, 531, 541, 551, 561, 571, 581, 591, 601, 611, 621, 631, 641, 651, 661, 671, 681, 691, 701, 711, 721, 731, 741, 751, 761, 771, 781, 791, 801, 811, 821, 831, 841, 851, 861, 871, 881, 891, 901, 911, 921, 931, 941, 951, 961, 971, 981, 991, 1001, 1011, 1021, 1031, 1041, 1051, 1061, 1071, 1081, 1091, 1101, 1111, 1121, 1131, 1141, 1151, 1161, 1171, 1181, 1191, 1201, 1211, 1221, 1231, 1241, 1251, 1261]","1074","1920","[960, 960, 960, 960, 960, 960, 960, 960, 960, 960, 960, 960, 960, 960, 960, 960, 960, 960, 960, 960, 960, 960, 960, 960, 960, 960, 960, 960, 960, 960, 960, 960, 960, 960, 960, 960, 956, 954, 950, 948, 947, 946, 944, 944, 943, 943, 942, 942, 942, 942, 942, 942, 942, 947, 961, 969, 984, 996, 1026, 1042, 1062, 1087, 1135, 1151, 1165, 1180, 1199, 1207, 1214, 1218, 1229, 1232, 1237, 1244, 1255, 1263, 1269, 1278, 1296, 1303, 1312, 1321, 1338, 1349, 1358, 1368, 1390, 1403, 1413, 1427, 1449, 1463, 1473, 1483, 1506, 1520, 1529, 1539, 1557, 1564, 1571, 1578, 1587, 1592, 1599, 1604, 1619, 1624, 1631, 1637, 1651, 1658, 1664, 1671, 1681, 1684, 1687, 1688, 1692, 1692, 1693, 1694, 1695, 1695, 1696, 1696]","[1010, 1010, 1010, 1010, 1010, 1010, 1010, 1010, 1010, 1010, 1010, 1010, 1010, 1010, 1010, 1010, 1010, 1010, 1010, 1010, 1010, 1010, 1010, 1010, 1010, 1010, 1010, 1010, 1010, 1010, 1010, 1010, 1010, 1010, 1010, 1007, 998, 989, 979, 975, 974, 972, 969, 968, 966, 966, 964, 964, 964, 964, 962, 958, 949, 939, 917, 903, 885, 871, 835, 817, 789, 760, 695, 673, 657, 639, 617, 606, 597, 589, 573, 566, 559, 552, 540, 533, 525, 516, 495, 485, 474, 462, 440, 428, 419, 409, 387, 376, 367, 355, 338, 328, 319, 309, 290, 279, 270, 262, 246, 240, 232, 224, 213, 206, 198, 192, 174, 166, 159, 150, 136, 128, 121, 112, 100, 94, 91, 89, 84, 81, 79, 79, 77, 76, 75, 75]"
"Trust","Teilnehmer A hat Ihnen 2 Punkte übermittelt.","Payback","1","undefined","14","0","4","60","1080","301","5","1","765","0","legacy","[11, 21, 31, 41, 51, 61, 71, 81, 91, 101, 111, 121, 131, 141, 151, 161, 171, 181, 191, 201, 211, 221, 231, 241, 251, 261, 271, 281, 291, 301, 311, 321, 331, 341, 351, 361, 371, 381, 391, 401, 411, 421, 431, 441, 451, 461, 471, 481, 491, 501, 511, 521, 531, 541, 551, 561, 571, 581, 591, 601, 611, 621, 631, 641, 651, 661, 671, 681, 691, 701, 711, 721, 731, 741, 751, 761]","1074","1920","[960, 960, 960, 960, 960, 960, 960, 960, 960, 960, 960, 960, 960, 960, 960, 960, 960, 960, 960, 962, 963, 963, 968, 975, 982, 992, 1011, 1022, 1033, 1045, 1091, 1133, 1177, 1217, 1308, 1359, 1399, 1438, 1498, 1521, 1546, 1568, 1606, 1620, 1635, 1641, 1654, 1661, 1668, 1674, 1688, 1698, 1705, 1716, 1733, 1742, 1751, 1758, 1772, 1779, 1784, 1791, 1800, 1804, 1806, 1808, 1809, 1809, 1809, 1809, 1809, 1809, 1809, 1809, 1809, 1809]","[1010, 1010, 1010, 1010, 1010, 1010, 1010, 1010, 1010, 1010, 1010, 1010, 1010, 1010, 1010, 1010, 1010, 1010, 1010, 1005, 1002, 999, 993, 989, 983, 976, 959, 951, 944, 938, 907, 877, 849, 813, 734, 692, 654, 622, 565, 529, 493, 466, 416, 398, 376, 364, 340, 328, 318, 307, 280, 264, 248, 230, 202, 188, 174, 164, 144, 133, 126, 117, 100, 92, 88, 84, 81, 81, 81, 78, 78, 77, 77, 76, 76, 76]"
"Promise","Wie oft werden Sie die Hälfte zurückgeben?","Promise","1","undefined","14","0","5","60","1080","251","5","1","648","0","legacy","[11, 21, 31, 41, 51, 61, 71, 81, 91, 101, 111, 121, 131, 141, 151, 161, 171, 181, 191, 201, 211, 221, 231, 241, 251, 261, 271, 281, 291, 301, 311, 321, 331, 341, 351, 361, 371, 381, 391, 401, 411, 421, 431, 441, 451, 461, 471, 481, 491, 501, 511, 521, 531, 541, 551, 561, 571, 581, 591, 601, 611, 621, 631, 641]","1074","1920","[960, 960, 960, 960, 960, 960, 960, 960, 960, 960, 960, 960, 960, 960, 960, 960, 960, 961, 962, 969, 977, 987, 999, 1049, 1088, 1140, 1198, 1298, 1343, 1384, 1425, 1504, 1544, 1585, 1625, 1685, 1708, 1726, 1740, 1769, 1780, 1788, 1793, 1808, 1811, 1817, 1821, 1827, 1830, 1831, 1832, 1832, 1832, 1832, 1832, 1832, 1832, 1832, 1831, 1831, 1831, 1831, 1831, 1831]","[1010, 1010, 1010, 1010, 1010, 1010, 1010, 1010, 1010, 1010, 1010, 1010, 1010, 1010, 1010, 1009, 1008, 1004, 1002, 992, 988, 980, 974, 945, 920, 887, 848, 754, 700, 647, 601, 520, 484, 441, 396, 319, 293, 270, 255, 215, 198, 185, 174, 149, 138, 125, 114, 89, 78, 71, 63, 55, 51, 49, 45, 39, 39, 37, 35, 35, 35, 35, 35, 35]"
"NoTrust","Teilnehmer A hat Ihnen keine 2 Punkte übermittelt.","Payback","1","undefined","15","0","5","60","1080","251","0","1","648","0","legacy","[11, 21, 31, 41, 51, 61, 71, 81, 91, 101, 111, 121, 131, 141, 151, 161, 171, 181, 191, 201, 211, 221, 231, 241, 251, 261, 271, 281, 291, 301, 311, 321, 331, 341, 351, 361, 371, 381, 391, 401, 411, 421, 431, 441, 451, 461, 471, 481, 491, 501, 511, 521, 531, 541, 551, 561, 571, 581, 591, 601, 611, 621, 631, 641]","1074","1920","[960, 960, 960, 960, 960, 960, 960, 960, 960, 960, 960, 960, 960, 960, 960, 960, 960, 961, 962, 969, 977, 987, 999, 1049, 1088, 1140, 1198, 1298, 1343, 1384, 1425, 1504, 1544, 1585, 1625, 1685, 1708, 1726, 1740, 1769, 1780, 1788, 1793, 1808, 1811, 1817, 1821, 1827, 1830, 1831, 1832, 1832, 1832, 1832, 1832, 1832, 1832, 1832, 1831, 1831, 1831, 1831, 1831, 1831]","[1010, 1010, 1010, 1010, 1010, 1010, 1010, 1010, 1010, 1010, 1010, 1010, 1010, 1010, 1010, 1009, 1008, 1004, 1002, 992, 988, 980, 974, 945, 920, 887, 848, 754, 700, 647, 601, 520, 484, 441, 396, 319, 293, 270, 255, 215, 198, 185, 174, 149, 138, 125, 114, 89, 78, 71, 63, 55, 51, 49, 45, 39, 39, 37, 35, 35, 35, 35, 35, 35]"
"Trust","Teilnehmer A hat Ihnen 2 Punkte übermittelt.","Payback","1","undefined","16","0","5","60","1080","241","5","1","949","0","legacy","[11, 21, 31, 41, 51, 61, 71, 81, 91, 101, 111, 121, 131, 141, 151, 161, 171, 181, 191, 201, 211, 221, 231, 241, 251, 261, 271, 281, 291, 301, 311, 321, 331, 341, 351, 361, 371, 381, 391, 401, 411, 421, 431, 441, 451, 461, 471, 481, 491, 501, 511, 521, 531, 541, 551, 561, 571, 581, 591, 601, 611, 621, 631, 641, 651, 661, 671, 681, 691, 701, 711, 721, 731, 741, 751, 761, 771, 781, 791, 801, 811, 821, 831, 841, 851, 861, 871, 881, 891, 901, 911, 921, 931, 941]","1074","1920","[960, 960, 960, 960, 960, 960, 960, 960, 960, 960, 960, 960, 960, 960, 961, 962, 966, 967, 973, 978, 983, 987, 997, 1003, 1013, 1033, 1075, 1096, 1120, 1146, 1196, 1222, 1246, 1267, 1309, 1325, 1343, 1358, 1394, 1412, 1425, 1438, 1455, 1459, 1463, 1468, 1477, 1480, 1483, 1487, 1493, 1497, 1499, 1503, 1515, 1520, 1526, 1530, 1541, 1545, 1550, 1555, 1565, 1568, 1571, 1577, 1587, 1593, 1603, 1612, 1632, 1643, 1653, 1665, 1685, 1695, 1703, 1711, 1729, 1736, 1742, 1751, 1764, 1770, 1774, 1775, 1779, 1780, 1781, 1782, 1783, 1783, 1783, 1783]","[1010, 1010, 1010, 1010, 1010, 1010, 1010, 1010, 1010, 1010, 1010, 1010, 1010, 1010, 1011, 1011, 1009, 1007, 996, 987, 979, 969, 947, 934, 920, 897, 858, 837, 817, 794, 752, 729, 705, 683, 645, 631, 614, 600, 561, 546, 533, 520, 503, 497, 491, 485, 468, 464, 459, 451, 438, 431, 425, 417, 398, 388, 380, 371, 353, 345, 336, 327, 311, 303, 296, 287, 270, 260, 249, 239, 216, 204, 192, 177, 151, 140, 129, 119, 100, 92, 83, 73, 58, 52, 47, 42, 35, 32, 30, 27, 27, 27, 27, 27]"
"Trust","Teilnehmer A hat Ihnen 2 Punkte übermittelt.","Payback","0","undefined","17","0","5","60","1080","231","10","2","1055","0","legacy","[11, 21, 31, 41, 51, 61, 71, 81, 91, 101, 111, 121, 131, 141, 151, 161, 171, 181, 191, 201, 211, 221, 231, 241, 251, 261, 271, 281, 291, 301, 311, 321, 331, 341, 351, 361, 371, 381, 391, 401, 411, 421, 431, 441, 451, 461, 471, 481, 491, 501, 511, 521, 531, 541, 551, 561, 571, 581, 591, 601, 611, 621, 631, 641, 651, 661, 671, 681, 691, 701, 711, 721, 731, 741, 751, 761, 771, 781, 791, 801, 811, 821, 831, 841, 851, 861, 871, 881, 891, 901, 911, 921, 931, 941, 951, 961, 971, 981, 991, 1001, 1011, 1021, 1031, 1041, 1051]","1074","1920","[960, 961, 961, 961, 961, 961, 961, 961, 961, 961, 961, 960, 958, 957, 957, 954, 952, 950, 947, 942, 941, 938, 936, 930, 928, 926, 922, 914, 910, 904, 900, 889, 883, 877, 870, 855, 848, 840, 832, 816, 807, 799, 790, 773, 764, 756, 745, 730, 723, 716, 711, 697, 691, 684, 679, 668, 662, 658, 655, 644, 638, 633, 625, 610, 600, 592, 578, 555, 544, 534, 526, 508, 498, 490, 480, 456, 449, 440, 429, 412, 402, 390, 376, 345, 329, 317, 304, 283, 272, 260, 248, 225, 217, 207, 200, 185, 180, 175, 171, 169, 168, 167, 167, 167, 167]","[1010, 1011, 1011, 1011, 1011, 1011, 1011, 1011, 1011, 1010, 1010, 1007, 1004, 1003, 1000, 993, 987, 983, 977, 960, 951, 944, 934, 917, 910, 903, 891, 874, 864, 854, 847, 826, 815, 802, 791, 767, 758, 748, 738, 717, 708, 698, 688, 671, 659, 649, 637, 619, 611, 602, 596, 580, 572, 562, 552, 533, 524, 517, 509, 492, 482, 473, 461, 437, 423, 412, 396, 364, 350, 335, 320, 296, 282, 271, 257, 223, 212, 201, 187, 169, 160, 152, 142, 127, 119, 113, 107, 99, 96, 93, 91, 83, 82, 79, 76, 74, 72, 71, 70, 70, 69, 68, 68, 68, 68]"
"Promise","Wie oft werden Sie die Hälfte zurückgeben?","Promise","1","undefined","17","0","6","60","1080","301","10","1","1025","0","legacy","[11, 21, 31, 41, 51, 61, 71, 81, 91, 101, 111, 121, 131, 141, 151, 161, 171, 181, 191, 201, 211, 221, 231, 241, 251, 261, 271, 281, 291, 301, 311, 321, 331, 341, 351, 361, 371, 381, 391, 401, 411, 421, 431, 441, 451, 461, 471, 481, 491, 501, 511, 521, 531, 541, 551, 561, 571, 581, 591, 601, 611, 621, 631, 641, 651, 661, 671, 681, 691, 701, 711, 721, 731, 741, 751, 761, 771, 781, 791, 801, 811, 821, 831, 841, 851, 861, 871, 881, 891, 901, 911, 921, 931, 941, 951, 961, 971, 981, 991, 1001, 1011, 1021]","1074","1920","[960, 960, 960, 960, 960, 960, 960, 960, 960, 960, 960, 960, 960, 960, 960, 960, 960, 960, 960, 960, 960, 960, 960, 961, 965, 966, 970, 975, 988, 999, 1011, 1019, 1039, 1047, 1057, 1065, 1082, 1093, 1101, 1108, 1124, 1130, 1139, 1148, 1164, 1172, 1181, 1188, 1202, 1211, 1220, 1228, 1256, 1266, 1282, 1297, 1330, 1348, 1366, 1384, 1415, 1430, 1443, 1455, 1490, 1509, 1527, 1543, 1583, 1606, 1625, 1644, 1677, 1693, 1705, 1714, 1730, 1738, 1744, 1752, 1767, 1774, 1782, 1788, 1797, 1801, 1805, 1808, 1813, 1817, 1818, 1822, 1825, 1826, 1826, 1827, 1829, 1829, 1829, 1829, 1829, 1829]","[1010, 1010, 1010, 1010, 1010, 1010, 1010, 1010, 1010, 1010, 1010, 1010, 1010, 1010, 1010, 1010, 1010, 1010, 1010, 1010, 1010, 1009, 1007, 1003, 994, 990, 981, 971, 948, 926, 907, 886, 854, 840, 824, 808, 772, 752, 739, 723, 699, 687, 674, 660, 640, 628, 618, 609, 590, 581, 572, 562, 535, 525, 512, 499, 471, 456, 439, 424, 396, 384, 371, 362, 336, 322, 309, 298, 269, 252, 241, 229, 210, 202, 192, 186, 174, 168, 163, 155, 145, 139, 134, 127, 117, 113, 108, 102, 92, 87, 83, 78, 70, 67, 65, 62, 59, 59, 58, 57, 56, 56]"
"Trust","Teilnehmer A hat Ihnen 2 Punkte übermittelt.","Payback","1","undefined","18","0","6","60","1080","371","5","1","1111","0","legacy","[11, 21, 31, 41, 51, 61, 71, 81, 91, 101, 111, 121, 131, 141, 151, 161, 171, 181, 191, 201, 211, 221, 231, 241, 251, 261, 271, 281, 291, 301, 311, 321, 331, 341, 351, 361, 371, 381, 391, 401, 411, 421, 431, 441, 451, 461, 471, 481, 491, 501, 511, 521, 531, 541, 551, 561, 571, 581, 591, 601, 611, 621, 631, 641, 651, 661, 671, 681, 691, 701, 711, 721, 731, 741, 751, 761, 771, 781, 791, 801, 811, 821, 831, 841, 851, 861, 871, 881, 891, 901, 911, 921, 931, 941, 951, 961, 971, 981, 991, 1001, 1011, 1021, 1031, 1041, 1051, 1061, 1071, 1081, 1091, 1101, 1111]","1074","1920","[960, 960, 960, 960, 960, 960, 960, 960, 960, 960, 960, 960, 960, 960, 960, 960, 960, 960, 960, 960, 960, 960, 960, 959, 959, 959, 959, 959, 959, 959, 959, 959, 959, 960, 964, 974, 983, 996, 1015, 1059, 1084, 1109, 1132, 1175, 1189, 1202, 1212, 1231, 1236, 1245, 1251, 1266, 1276, 1289, 1295, 1310, 1318, 1329, 1337, 1350, 1357, 1365, 1374, 1393, 1403, 1415, 1426, 1447, 1457, 1469, 1480, 1503, 1516, 1527, 1538, 1559, 1569, 1581, 1592, 1616, 1630, 1642, 1656, 1679, 1687, 1694, 1703, 1709, 1710, 1711, 1712, 1712, 1712, 1713, 1713, 1715, 1716, 1716, 1719, 1721, 1724, 1725, 1727, 1729, 1731, 1732, 1734, 1734, 1734, 1734, 1734]","[1010, 1010, 1010, 1010, 1010, 1010, 1010, 1010, 1010, 1010, 1010, 1010, 1010, 1009, 1007, 1006, 1005, 1005, 1004, 1003, 1003, 1003, 1003, 1003, 1003, 1003, 1003, 1003, 1002, 1001, 1000, 995, 991, 982, 973, 941, 915, 884, 838, 762, 713, 672, 634, 577, 552, 528, 512, 479, 468, 455, 443, 420, 405, 390, 379, 359, 350, 338, 329, 313, 306, 298, 291, 278, 270, 262, 254, 240, 233, 224, 217, 202, 195, 189, 183, 176, 170, 167, 165, 157, 155, 150, 147, 140, 138, 135, 132, 129, 128, 128, 128, 128, 128, 127, 127, 126, 124, 124, 122, 121, 118, 117, 115, 113, 112, 110, 109, 108, 108, 108, 108]"
"Trust","Teilnehmer A hat Ihnen 2 Punkte übermittelt.","Payback","0","undefined","19","0","6","60","1080","201","10","2","839","0","legacy","[11, 21, 31, 41, 51, 61, 71, 81, 91, 101, 111, 121, 131, 141, 151, 161, 171, 181, 191, 201, 211, 221, 231, 241, 251, 261, 271, 281, 291, 301, 311, 321, 331, 341, 351, 361, 371, 381, 391, 401, 411, 421, 431, 441, 451, 461, 471, 481, 491, 501, 511, 521, 531, 541, 551, 561, 571, 581, 591, 601, 611, 621, 631, 641, 651, 661, 671, 681, 691, 701, 711, 721, 731, 741, 751, 761, 771, 781, 791, 801, 811, 821, 831]","1074","1920","[960, 960, 960, 960, 960, 960, 960, 960, 960, 960, 959, 957, 955, 953, 952, 946, 941, 936, 930, 915, 909, 903, 895, 872, 860, 852, 845, 831, 824, 818, 810, 799, 792, 785, 779, 767, 761, 754, 743, 706, 688, 671, 657, 623, 606, 593, 580, 559, 547, 531, 516, 488, 475, 462, 453, 432, 421, 411, 404, 388, 380, 372, 362, 344, 335, 327, 315, 297, 288, 278, 267, 250, 241, 236, 230, 224, 221, 219, 219, 219, 219, 219, 219]","[1010, 1010, 1010, 1010, 1010, 1010, 1010, 1010, 1010, 1010, 1008, 1006, 1005, 1003, 1003, 988, 979, 969, 959, 939, 928, 920, 906, 877, 862, 851, 842, 825, 819, 811, 805, 787, 774, 761, 746, 722, 710, 693, 655, 546, 503, 466, 429, 376, 351, 334, 317, 294, 281, 265, 251, 226, 213, 202, 191, 170, 161, 153, 146, 136, 129, 122, 116, 104, 98, 93, 87, 79, 77, 73, 70, 65, 63, 61, 61, 60, 60, 59, 59, 59, 59, 59, 59]"
"Trust","Teilnehmer A hat Ihnen 2 Punkte übermittelt.","Payback","1","undefined","20","0","6","60","1080","301","5","1","1262","0","legacy","[11, 21, 31, 41, 51, 61, 71, 81, 91, 101, 111, 121, 131, 141, 151, 161, 171, 181, 191, 201, 211, 221, 231, 241, 251, 261, 271, 281, 291, 301, 311, 321, 331, 341, 351, 361, 371, 381, 391, 401, 411, 421, 431, 441, 451, 461, 471, 481, 491, 501, 511, 521, 531, 541, 551, 561, 571, 581, 591, 601, 611, 621, 631, 641, 651, 661, 671, 681, 691, 701, 711, 721, 731, 741, 751, 761, 771, 781, 791, 801, 811, 821, 831, 841, 851, 861, 871, 881, 891, 901, 911, 921, 931, 941, 951, 961, 971, 981, 991, 1001, 1011, 1021, 1031, 1041, 1051, 1061, 1071, 1081, 1091, 1101, 1111, 1121, 1131, 1141, 1151, 1161, 1171, 1181, 1191, 1201, 1211, 1221, 1231, 1241, 1251, 1261]","1074","1920","[960, 960, 960, 960, 960, 960, 960, 960, 960, 960, 960, 960, 960, 960, 960, 960, 960, 960, 959, 959, 958, 958, 958, 958, 958, 958, 961, 969, 985, 1013, 1063, 1092, 1119, 1142, 1191, 1212, 1228, 1249, 1269, 1280, 1286, 1292, 1306, 1312, 1317, 1322, 1333, 1337, 1343, 1347, 1360, 1368, 1376, 1383, 1399, 1406, 1413, 1419, 1428, 1433, 1441, 1447, 1456, 1461, 1467, 1470, 1476, 1479, 1481, 1484, 1490, 1492, 1496, 1499, 1506, 1510, 1511, 1515, 1525, 1530, 1539, 1544, 1559, 1566, 1574, 1580, 1598, 1607, 1617, 1627, 1647, 1654, 1662, 1668, 1679, 1683, 1687, 1692, 1699, 1702, 1705, 1706, 1711, 1714, 1716, 1718, 1722, 1723, 1725, 1726, 1729, 1732, 1732, 1734, 1736, 1738, 1738, 1739, 1741, 1742, 1743, 1743, 1744, 1744, 1745, 1745]","[1010, 1010, 1010, 1010, 1010, 1010, 1010, 1010, 1010, 1010, 1010, 1010, 1010, 1010, 1010, 1010, 1009, 1007, 1002, 999, 996, 993, 986, 982, 978, 973, 967, 960, 947, 928, 881, 858, 828, 808, 760, 738, 724, 705, 687, 676, 670, 662, 647, 639, 632, 626, 608, 599, 587, 574, 547, 532, 516, 505, 481, 472, 462, 452, 435, 426, 414, 406, 388, 379, 371, 363, 349, 340, 332, 324, 313, 309, 303, 299, 289, 284, 281, 277, 267, 262, 257, 252, 241, 237, 231, 227, 216, 211, 205, 200, 188, 184, 180, 177, 171, 168, 166, 164, 158, 158, 155, 154, 150, 148, 146, 144, 141, 140, 138, 137, 135, 132, 132, 130, 128, 126, 126, 125, 123, 121, 121, 120, 118, 118, 117, 117]"
"Promise","Wie oft werden Sie die Hälfte zurückgeben?","Promise","1","undefined","20","0","7","60","1080","611","5","1","1610","0","legacy","[11, 21, 31, 41, 51, 61, 71, 81, 91, 101, 111, 121, 131, 141, 151, 161, 171, 181, 191, 201, 211, 221, 231, 241, 251, 261, 271, 281, 291, 301, 311, 321, 331, 341, 351, 361, 371, 381, 391, 401, 411, 421, 431, 441, 451, 461, 471, 481, 491, 501, 511, 521, 531, 541, 551, 561, 571, 581, 591, 601, 611, 621, 631, 641, 651, 661, 671, 681, 691, 701, 711, 721, 731, 741, 751, 761, 771, 781, 791, 801, 811, 821, 831, 841, 851, 861, 871, 881, 891, 901, 911, 921, 931, 941, 951, 961, 971, 981, 991, 1001, 1011, 1021, 1031, 1041, 1051, 1061, 1071, 1081, 1091, 1101, 1111, 1121, 1131, 1141, 1151, 1161, 1171, 1181, 1191, 1201, 1211, 1221, 1231, 1241, 1251, 1261, 1271, 1281, 1291, 1301, 1311, 1321, 1331, 1341, 1351, 1361, 1371, 1381, 1391, 1401, 1411, 1421, 1431, 1441, 1451, 1461, 1471, 1481, 1491, 1501, 1511, 1521, 1531, 1541, 1551, 1561, 1571, 1581, 1591, 1601]","1074","1920","[960, 960, 960, 960, 960, 960, 960, 960, 960, 960, 960, 960, 960, 960, 960, 960, 960, 960, 960, 960, 960, 960, 960, 960, 960, 960, 960, 960, 960, 960, 960, 960, 960, 960, 960, 960, 960, 960, 960, 960, 960, 960, 960, 960, 960, 960, 960, 960, 960, 960, 964, 969, 973, 977, 983, 987, 993, 994, 1001, 1014, 1076, 1121, 1163, 1203, 1279, 1311, 1343, 1369, 1418, 1445, 1461, 1475, 1491, 1498, 1500, 1503, 1506, 1507, 1509, 1509, 1513, 1514, 1516, 1518, 1526, 1529, 1532, 1535, 1539, 1542, 1544, 1549, 1555, 1558, 1562, 1568, 1573, 1576, 1579, 1581, 1588, 1591, 1596, 1600, 1610, 1613, 1618, 1623, 1633, 1638, 1642, 1645, 1653, 1654, 1655, 1658, 1661, 1663, 1666, 1667, 1670, 1672, 1675, 1675, 1679, 1679, 1680, 1680, 1682, 1682, 1682, 1682, 1682, 1682, 1682, 1682, 1682, 1682, 1682, 1682, 1682, 1682, 1682, 1682, 1682, 1682, 1682, 1682, 1682, 1682, 1682, 1682, 1682, 1682, 1682, 1682, 1682, 1682, 1682, 1682]","[1010, 1010, 1010, 1010, 1010, 1010, 1010, 1010, 1010, 1010, 1010, 1010, 1010, 1010, 1010, 1010, 1010, 1010, 1010, 1010, 1010, 1010, 1010, 1010, 1010, 1010, 1010, 1010, 1010, 1010, 1010, 1010, 1010, 1010, 1010, 1010, 1010, 1010, 1010, 1010, 1010, 1010, 1010, 1010, 1010, 1010, 1010, 1010, 1010, 1010, 1004, 997, 988, 983, 975, 969, 959, 957, 951, 941, 896, 866, 833, 802, 737, 709, 683, 658, 588, 552, 532, 510, 488, 478, 473, 467, 459, 456, 450, 447, 436, 431, 425, 418, 404, 400, 392, 388, 376, 371, 366, 357, 345, 337, 328, 321, 306, 299, 293, 287, 272, 265, 255, 245, 226, 219, 211, 202, 186, 179, 171, 165, 153, 150, 146, 142, 133, 131, 127, 123, 119, 115, 112, 110, 106, 104, 104, 104, 101, 101, 101, 101, 101, 101, 101, 101, 101, 101, 101, 101, 101, 101, 101, 101, 101, 101, 101, 101, 101, 101, 101, 101, 101, 101, 101, 101, 101, 101, 101, 101]"
"Trust","Teilnehmer A hat Ihnen 2 Punkte übermittelt.","Payback","1","undefined","21","0","7","60","1080","141","5","1","751","0","legacy","[11, 21, 31, 41, 51, 61, 71, 81, 91, 101, 111, 121, 131, 141, 151, 161, 171, 181, 191, 201, 211, 221, 231, 241, 251, 261, 271, 281, 291, 301, 311, 321, 331, 341, 351, 361, 371, 381, 391, 401, 411, 421, 431, 441, 451, 461, 471, 481, 491, 501, 511, 521, 531, 541, 551, 561, 571, 581, 591, 601, 611, 621, 631, 641, 651, 661, 671, 681, 691, 701, 711, 721, 731, 741, 751]","1074","1920","[960, 960, 960, 960, 960, 960, 960, 960, 960, 960, 963, 989, 1005, 1032, 1061, 1111, 1132, 1159, 1183, 1229, 1247, 1267, 1284, 1324, 1337, 1354, 1369, 1393, 1409, 1416, 1423, 1435, 1442, 1449, 1454, 1467, 1474, 1482, 1490, 1508, 1517, 1525, 1531, 1546, 1553, 1559, 1564, 1575, 1581, 1588, 1592, 1605, 1610, 1616, 1623, 1634, 1644, 1649, 1657, 1668, 1673, 1680, 1684, 1693, 1696, 1699, 1702, 1707, 1710, 1711, 1712, 1714, 1714, 1714, 1714]","[1010, 1010, 1010, 1010, 1010, 1010, 1010, 1010, 1010, 1010, 1010, 980, 957, 932, 907, 858, 839, 812, 792, 742, 719, 695, 677, 630, 615, 595, 577, 547, 531, 523, 511, 490, 478, 468, 457, 435, 425, 412, 400, 376, 363, 352, 344, 322, 312, 300, 292, 271, 261, 250, 240, 218, 208, 198, 185, 164, 153, 143, 134, 118, 109, 100, 94, 83, 78, 72, 68, 60, 57, 54, 54, 52, 52, 52, 52]"
"Trust","Teilnehmer A hat Ihnen 2 Punkte übermittelt.","Payback","0","undefined","22","0","7","60","1080","211","10","2","967","0","legacy","[11, 21, 31, 41, 51, 61, 71, 81, 91, 101, 111, 121, 131, 141, 151, 161, 171, 181, 191, 201, 211, 221, 231, 241, 251, 261, 271, 281, 291, 301, 311, 321, 331, 341, 351, 361, 371, 381, 391, 401, 411, 421, 431, 441, 451, 461, 471, 481, 491, 501, 511, 521, 531, 541, 551, 561, 571, 581, 591, 601, 611, 621, 631, 641, 651, 661, 671, 681, 691, 701, 711, 721, 731, 741, 751, 761, 771, 781, 791, 801, 811, 821, 831, 841, 851, 861, 871, 881, 891, 901, 911, 921, 931, 941, 951, 961]","1074","1920","[960, 960, 960, 960, 960, 960, 960, 960, 960, 960, 960, 960, 960, 960, 960, 960, 960, 958, 956, 942, 928, 908, 888, 835, 804, 775, 742, 683, 651, 625, 598, 565, 547, 538, 525, 510, 502, 496, 490, 472, 464, 456, 447, 430, 420, 410, 400, 381, 371, 359, 352, 329, 318, 306, 297, 278, 268, 263, 257, 245, 241, 236, 231, 222, 216, 209, 202, 194, 191, 189, 187, 185, 185, 184, 184, 184, 184, 184, 184, 184, 184, 184, 184, 184, 184, 184, 184, 184, 184, 184, 184, 184, 184, 184, 184, 184]","[1010, 1010, 1010, 1010, 1010, 1010, 1010, 1010, 1010, 1010, 1010, 1010, 1010, 1010, 1010, 1010, 1009, 1002, 991, 949, 915, 869, 821, 723, 674, 627, 580, 496, 456, 425, 388, 338, 315, 301, 284, 262, 252, 242, 231, 207, 197, 187, 176, 161, 153, 144, 136, 122, 117, 111, 104, 97, 91, 86, 83, 77, 76, 75, 73, 72, 72, 72, 72, 72, 72, 72, 72, 72, 71, 70, 70, 69, 69, 68, 68, 68, 68, 68, 68, 68, 68, 68, 68, 68, 68, 68, 68, 68, 68, 68, 68, 68, 68, 68, 68, 68]"
"Trust","Teilnehmer A hat Ihnen 2 Punkte übermittelt.","Payback","0","undefined","23","0","7","60","1080","251","10","2","1878","0","legacy","[11, 21, 31, 41, 51, 61, 71, 81, 91, 101, 111, 121, 131, 141, 151, 161, 171, 181, 191, 201, 211, 221, 231, 241, 251, 261, 271, 281, 291, 301, 311, 321, 331, 341, 351, 361, 371, 381, 391, 401, 411, 421, 431, 441, 451, 461, 471, 481, 491, 501, 511, 521, 531, 541, 551, 561, 571, 581, 591, 601, 611, 621, 631, 641, 651, 661, 671, 681, 691, 701, 711, 721, 731, 741, 751, 761, 771, 781, 791, 801, 811, 821, 831, 841, 851, 861, 871, 881, 891, 901, 911, 921, 931, 941, 951, 961, 971, 981, 991, 1001, 1011, 1021, 1031, 1041, 1051, 1061, 1071, 1081, 1091, 1101, 1111, 1121, 1131, 1141, 1151, 1161, 1171, 1181, 1191, 1201, 1211, 1221, 1231, 1241, 1251, 1261, 1271, 1281, 1291, 1301, 1311, 1321, 1331, 1341, 1351, 1361, 1371, 1381, 1391, 1401, 1411, 1421, 1431, 1441, 1451, 1461, 1471, 1481, 1491, 1501, 1511, 1521, 1531, 1541, 1551, 1561, 1571, 1581, 1591, 1601, 1611, 1621, 1631, 1641, 1651, 1661, 1671, 1681, 1691, 1701, 1711, 1721, 1731, 1741, 1751, 1761, 1771, 1781, 1791, 1801, 1811, 1821, 1831, 1841, 1851, 1861, 1871]","1074","1920","[960, 960, 960, 960, 960, 960, 960, 960, 960, 960, 959, 959, 959, 959, 957, 957, 955, 953, 949, 946, 944, 941, 933, 928, 923, 915, 901, 894, 886, 876, 861, 850, 840, 833, 819, 813, 810, 805, 801, 800, 800, 799, 796, 793, 790, 787, 781, 777, 773, 770, 759, 751, 742, 730, 691, 671, 658, 647, 625, 615, 603, 594, 575, 567, 560, 551, 533, 524, 516, 508, 491, 483, 477, 468, 451, 441, 430, 419, 397, 384, 374, 365, 349, 342, 335, 331, 320, 314, 310, 307, 298, 297, 295, 293, 289, 287, 285, 283, 278, 276, 274, 271, 268, 266, 266, 265, 264, 264, 264, 264, 264, 264, 264, 264, 264, 264, 272, 279, 300, 310, 317, 324, 336, 338, 339, 339, 340, 340, 340, 340, 340, 340, 340, 340, 340, 340, 340, 340, 340, 340, 340, 340, 337, 334, 329, 326, 317, 310, 303, 296, 283, 279, 276, 273, 269, 269, 269, 269, 269, 269, 269, 269, 269, 269, 269, 269, 268, 268, 268, 268, 268, 268, 268, 268, 268, 268, 268, 268, 268, 268, 268, 268, 268, 268, 268, 268, 268]","[1011, 1011, 1011, 1011, 1011, 1011, 1011, 1010, 1010, 1009, 1008, 1008, 1008, 1007, 1004, 1004, 1000, 998, 992, 989, 984, 979, 961, 951, 939, 926, 902, 892, 881, 871, 853, 845, 836, 830, 818, 814, 811, 806, 803, 802, 802, 797, 792, 789, 783, 779, 771, 766, 762, 758, 747, 739, 729, 709, 654, 630, 613, 600, 577, 568, 559, 551, 535, 527, 521, 514, 499, 491, 482, 471, 453, 444, 437, 428, 406, 396, 384, 371, 346, 333, 321, 309, 288, 280, 269, 261, 239, 230, 222, 214, 202, 196, 192, 186, 173, 167, 161, 157, 147, 142, 139, 134, 130, 127, 125, 123, 122, 122, 122, 122, 122, 122, 122, 122, 121, 119, 115, 114, 107, 105, 103, 100, 97, 96, 96, 96, 95, 95, 95, 95, 95, 95, 95, 95, 95, 95, 95, 95, 95, 95, 95, 95, 94, 92, 90, 89, 87, 86, 85, 85, 83, 83, 82, 82, 81, 81, 81, 81, 81, 81, 81, 81, 81, 81, 81, 81, 81, 81, 81, 81, 81, 81, 81, 81, 81, 81, 81, 81, 81, 81, 81, 81, 81, 81, 81, 81, 81]"
CHF,TotCHF,final_payoff,sum
"15","35","[5, 10, 10, 5]","30"
