Condition,PromiseStage,Stage,accuracy,avg_rt,count_decision_sequence,count_loop1,count_trial_sequence,font_size,height,init_time,payoff,response,rt,subject_nr,synth_backend,tTrajectory,time_experiment,width,xTrajectory,yTrajectory
"Promise","Wie oft werden Sie die Hälfte zurückgeben?","Promise","1","undefined","NA","0","0","60","1080","191","NA","1","1175","0","legacy","[11, 21, 31, 41, 51, 61, 71, 81, 91, 101, 111, 121, 131, 141, 151, 161, 171, 181, 191, 201, 211, 221, 231, 241, 251, 261, 271, 281, 291, 301, 311, 321, 331, 341, 351, 361, 371, 381, 391, 401, 411, 421, 431, 441, 451, 461, 471, 481, 491, 501, 511, 521, 531, 541, 551, 561, 571, 581, 591, 601, 611, 621, 631, 641, 651, 661, 671, 681, 691, 701, 711, 721, 731, 741, 751, 761, 771, 781, 791, 801, 811, 821, 831, 841, 851, 861, 871, 881, 891, 901, 911, 921, 931, 941, 951, 961, 971, 981, 991, 1001, 1011, 1021, 1031, 1041, 1051, 1061, 1071, 1081, 1091, 1101, 1111, 1121, 1131, 1141, 1151, 1161, 1171]","1095","1920","[960, 960, 960, 960, 960, 960, 960, 960, 960, 960, 960, 963, 969, 978, 989, 1015, 1025, 1043, 1066, 1109, 1137, 1155, 1179, 1225, 1249, 1270, 1287, 1325, 1340, 1352, 1365, 1388, 1399, 1409, 1421, 1444, 1455, 1467, 1483, 1509, 1519, 1531, 1539, 1554, 1559, 1567, 1572, 1581, 1586, 1588, 1591, 1597, 1598, 1599, 1601, 1604, 1605, 1606, 1608, 1611, 1615, 1618, 1621, 1631, 1636, 1643, 1652, 1665, 1674, 1688, 1696, 1727, 1736, 1746, 1756, 1772, 1777, 1783, 1788, 1798, 1800, 1803, 1805, 1807, 1807, 1807, 1807, 1807, 1807, 1807, 1807, 1807, 1807, 1807, 1807, 1806, 1805, 1803, 1802, 1799, 1799, 1797, 1797, 1795, 1794, 1794, 1793, 1793, 1792, 1792, 1792, 1792, 1792, 1792, 1792, 1792, 1792]","[1010, 1010, 1010, 1010, 1010, 1010, 1010, 1010, 1010, 1010, 1010, 1006, 1001, 992, 985, 963, 954, 940, 924, 892, 873, 854, 834, 794, 772, 751, 728, 682, 664, 642, 625, 593, 579, 565, 548, 516, 499, 484, 464, 434, 419, 403, 391, 369, 361, 349, 343, 330, 323, 321, 315, 307, 305, 303, 300, 295, 293, 290, 286, 277, 271, 266, 262, 246, 236, 224, 211, 187, 169, 147, 132, 82, 64, 42, 24, 0, 0, 0, 0, 0, 0, 0, 0, 0, 0, 0, 0, 0, 0, 0, 0, 0, 1, 3, 6, 11, 14, 18, 21, 25, 27, 31, 32, 36, 37, 38, 40, 41, 41, 41, 41, 41, 41, 41, 41, 41, 41]"
Cond,DecisionB,Stage,accuracy,avg_rt,count_decision_sequence,count_loop1,count_trial_sequence,font_size,height,init_time,payoff,response,rt,subject_nr,synth_backend,tTrajectory,time_experiment,width,xTrajectory,yTrajectory
"Trust","Teilnehmer A hat Ihnen 2 Punkte übermittelt.","Payback","1","undefined","0","0","0","60","1080","191","5","1","1262","0","legacy","[11, 21, 31, 41, 51, 61, 71, 81, 91, 101, 111, 121, 131, 141, 151, 161, 171, 181, 191, 201, 211, 221, 231, 241, 251, 261, 271, 281, 291, 301, 311, 321, 331, 341, 351, 361, 371, 381, 391, 401, 411, 421, 431, 441, 451, 461, 471, 481, 491, 501, 511, 521, 531, 541, 551, 561, 571, 581, 591, 601, 611, 621, 631, 641, 651, 661, 671, 681, 691, 701, 711, 721, 731, 741, 751, 761, 771, 781, 791, 801, 811, 821, 831, 841, 851, 861, 871, 881, 891, 901, 911, 921, 931, 941, 951, 961, 971, 981, 991, 1001, 1011, 1021, 1031, 1041, 1051, 1061, 1071, 1081, 1091, 1101, 1111, 1121, 1131, 1141, 1151, 1161, 1171, 1181, 1191, 1201, 1211, 1221, 1231, 1241, 1251, 1261]","1095","1920","[960, 960, 960, 960, 960, 960, 960, 960, 960, 960, 960, 960, 961, 968, 990, 1001, 1019, 1033, 1072, 1097, 1123, 1149, 1197, 1219, 1243, 1265, 1310, 1329, 1349, 1363, 1391, 1404, 1418, 1432, 1454, 1463, 1474, 1483, 1504, 1511, 1516, 1522, 1533, 1539, 1542, 1544, 1549, 1553, 1556, 1557, 1565, 1567, 1571, 1576, 1589, 1597, 1607, 1613, 1634, 1643, 1651, 1660, 1678, 1685, 1696, 1701, 1712, 1717, 1721, 1723, 1730, 1731, 1735, 1735, 1739, 1740, 1742, 1742, 1743, 1743, 1745, 1745, 1746, 1747, 1749, 1749, 1750, 1752, 1752, 1754, 1756, 1757, 1758, 1760, 1761, 1762, 1762, 1763, 1764, 1764, 1764, 1764, 1765, 1765, 1765, 1765, 1765, 1765, 1765, 1765, 1765, 1765, 1765, 1765, 1765, 1765, 1765, 1765, 1765, 1765, 1765, 1765, 1765, 1765, 1765, 1765]","[1010, 1010, 1010, 1010, 1010, 1010, 1010, 1010, 1010, 1010, 1007, 1004, 1001, 997, 980, 973, 964, 954, 919, 901, 880, 860, 813, 790, 758, 732, 673, 645, 617, 592, 544, 522, 500, 477, 440, 423, 405, 388, 355, 344, 334, 322, 303, 293, 287, 279, 269, 263, 260, 256, 249, 247, 244, 240, 231, 225, 218, 213, 201, 193, 186, 181, 167, 162, 154, 149, 140, 134, 130, 127, 118, 116, 111, 110, 105, 103, 100, 99, 96, 96, 94, 92, 90, 89, 85, 85, 82, 79, 79, 77, 73, 72, 70, 69, 65, 64, 63, 62, 60, 60, 60, 59, 57, 57, 57, 57, 57, 57, 57, 57, 57, 57, 57, 57, 57, 57, 57, 57, 57, 57, 57, 57, 57, 57, 57, 57]"
"NoTrust","Teilnehmer A hat Ihnen keine 2 Punkte übermittelt.","Payback","1","undefined","1","0","0","60","1080","191","0","1","1262","0","legacy","[11, 21, 31, 41, 51, 61, 71, 81, 91, 101, 111, 121, 131, 141, 151, 161, 171, 181, 191, 201, 211, 221, 231, 241, 251, 261, 271, 281, 291, 301, 311, 321, 331, 341, 351, 361, 371, 381, 391, 401, 411, 421, 431, 441, 451, 461, 471, 481, 491, 501, 511, 521, 531, 541, 551, 561, 571, 581, 591, 601, 611, 621, 631, 641, 651, 661, 671, 681, 691, 701, 711, 721, 731, 741, 751, 761, 771, 781, 791, 801, 811, 821, 831, 841, 851, 861, 871, 881, 891, 901, 911, 921, 931, 941, 951, 961, 971, 981, 991, 1001, 1011, 1021, 1031, 1041, 1051, 1061, 1071, 1081, 1091, 1101, 1111, 1121, 1131, 1141, 1151, 1161, 1171, 1181, 1191, 1201, 1211, 1221, 1231, 1241, 1251, 1261]","1095","1920","[960, 960, 960, 960, 960, 960, 960, 960, 960, 960, 960, 960, 961, 968, 990, 1001, 1019, 1033, 1072, 1097, 1123, 1149, 1197, 1219, 1243, 1265, 1310, 1329, 1349, 1363, 1391, 1404, 1418, 1432, 1454, 1463, 1474, 1483, 1504, 1511, 1516, 1522, 1533, 1539, 1542, 1544, 1549, 1553, 1556, 1557, 1565, 1567, 1571, 1576, 1589, 1597, 1607, 1613, 1634, 1643, 1651, 1660, 1678, 1685, 1696, 1701, 1712, 1717, 1721, 1723, 1730, 1731, 1735, 1735, 1739, 1740, 1742, 1742, 1743, 1743, 1745, 1745, 1746, 1747, 1749, 1749, 1750, 1752, 1752, 1754, 1756, 1757, 1758, 1760, 1761, 1762, 1762, 1763, 1764, 1764, 1764, 1764, 1765, 1765, 1765, 1765, 1765, 1765, 1765, 1765, 1765, 1765, 1765, 1765, 1765, 1765, 1765, 1765, 1765, 1765, 1765, 1765, 1765, 1765, 1765, 1765]","[1010, 1010, 1010, 1010, 1010, 1010, 1010, 1010, 1010, 1010, 1007, 1004, 1001, 997, 980, 973, 964, 954, 919, 901, 880, 860, 813, 790, 758, 732, 673, 645, 617, 592, 544, 522, 500, 477, 440, 423, 405, 388, 355, 344, 334, 322, 303, 293, 287, 279, 269, 263, 260, 256, 249, 247, 244, 240, 231, 225, 218, 213, 201, 193, 186, 181, 167, 162, 154, 149, 140, 134, 130, 127, 118, 116, 111, 110, 105, 103, 100, 99, 96, 96, 94, 92, 90, 89, 85, 85, 82, 79, 79, 77, 73, 72, 70, 69, 65, 64, 63, 62, 60, 60, 60, 59, 57, 57, 57, 57, 57, 57, 57, 57, 57, 57, 57, 57, 57, 57, 57, 57, 57, 57, 57, 57, 57, 57, 57, 57]"
"Trust","Teilnehmer A hat Ihnen 2 Punkte übermittelt.","Payback","1","undefined","2","0","0","60","1080","281","5","1","958","0","legacy","[11, 21, 31, 41, 51, 61, 71, 81, 91, 101, 111, 121, 131, 141, 151, 161, 171, 181, 191, 201, 211, 221, 231, 241, 251, 261, 271, 281, 291, 301, 311, 321, 331, 341, 351, 361, 371, 381, 391, 401, 411, 421, 431, 441, 451, 461, 471, 481, 491, 501, 511, 521, 531, 541, 551, 561, 571, 581, 591, 601, 611, 621, 631, 641, 651, 661, 671, 681, 691, 701, 711, 721, 731, 741, 751, 761, 771, 781, 791, 801, 811, 821, 831, 841, 851, 861, 871, 881, 891, 901, 911, 921, 931, 941, 951]","1095","1920","[960, 960, 960, 960, 960, 960, 960, 960, 960, 960, 960, 960, 960, 960, 960, 960, 960, 960, 961, 963, 967, 970, 976, 982, 986, 992, 1010, 1020, 1031, 1045, 1082, 1100, 1128, 1157, 1221, 1266, 1305, 1342, 1422, 1455, 1490, 1525, 1595, 1625, 1652, 1682, 1738, 1768, 1797, 1824, 1864, 1883, 1898, 1911, 1919, 1919, 1919, 1919, 1919, 1919, 1919, 1919, 1919, 1919, 1919, 1919, 1915, 1912, 1906, 1904, 1898, 1895, 1894, 1891, 1886, 1886, 1885, 1883, 1882, 1882, 1882, 1881, 1880, 1880, 1879, 1879, 1878, 1877, 1877, 1876, 1876, 1876, 1876, 1876, 1876]","[1010, 1010, 1010, 1010, 1010, 1010, 1010, 1010, 1010, 1010, 1010, 1010, 1010, 1010, 1010, 1010, 1010, 1010, 1009, 1007, 1003, 999, 991, 985, 978, 971, 947, 934, 921, 906, 864, 847, 830, 816, 768, 740, 710, 681, 609, 574, 539, 494, 412, 372, 333, 292, 213, 174, 137, 101, 32, 7, 0, 0, 0, 0, 0, 0, 0, 0, 0, 0, 0, 0, 0, 0, 0, 1, 4, 6, 9, 10, 11, 13, 16, 17, 17, 19, 20, 22, 22, 23, 24, 24, 25, 26, 27, 28, 28, 30, 30, 30, 31, 31, 31]"
"Promise","Wie oft werden Sie die Hälfte zurückgeben?","Promise","1","undefined","2","0","1","60","1080","301","5","1","1050","0","legacy","[11, 21, 31, 41, 51, 61, 71, 81, 91, 101, 111, 121, 131, 141, 151, 161, 171, 181, 191, 201, 211, 221, 231, 241, 251, 261, 271, 281, 291, 301, 311, 321, 331, 341, 351, 361, 371, 381, 391, 401, 411, 421, 431, 441, 451, 461, 471, 481, 491, 501, 511, 521, 531, 541, 551, 561, 571, 581, 591, 601, 611, 621, 631, 641, 651, 661, 671, 681, 691, 701, 711, 721, 731, 741, 751, 761, 771, 781, 791, 801, 811, 821, 831, 841, 851, 861, 871, 881, 891, 901, 911, 921, 931, 941, 951, 961, 971, 981, 991, 1001, 1011, 1021, 1031, 1041]","1095","1920","[960, 960, 960, 960, 960, 960, 960, 960, 960, 960, 960, 960, 960, 960, 960, 960, 961, 962, 963, 963, 964, 965, 968, 968, 974, 978, 985, 991, 1000, 1008, 1016, 1026, 1048, 1063, 1080, 1094, 1128, 1148, 1165, 1177, 1203, 1213, 1222, 1231, 1243, 1249, 1256, 1261, 1271, 1276, 1281, 1287, 1297, 1301, 1307, 1313, 1327, 1334, 1342, 1349, 1362, 1368, 1377, 1384, 1406, 1417, 1428, 1443, 1471, 1483, 1496, 1510, 1537, 1549, 1563, 1580, 1598, 1608, 1615, 1623, 1639, 1644, 1649, 1654, 1666, 1669, 1672, 1674, 1675, 1675, 1675, 1675, 1675, 1675, 1675, 1675, 1675, 1675, 1675, 1675, 1675, 1675, 1675, 1675]","[1010, 1010, 1010, 1010, 1010, 1010, 1010, 1010, 1010, 1010, 1010, 1010, 1010, 1010, 1010, 1008, 1001, 996, 995, 993, 988, 986, 982, 980, 972, 967, 958, 951, 943, 937, 930, 922, 906, 896, 886, 876, 852, 838, 825, 817, 798, 788, 781, 774, 758, 749, 742, 733, 716, 707, 697, 687, 668, 657, 647, 635, 611, 597, 586, 573, 545, 533, 520, 507, 469, 447, 428, 404, 357, 336, 311, 292, 250, 231, 211, 190, 167, 153, 141, 131, 112, 105, 99, 94, 85, 82, 80, 78, 77, 77, 77, 77, 77, 77, 77, 77, 77, 77, 77, 77, 77, 77, 77, 77]"
"Trust","Teilnehmer A hat Ihnen 2 Punkte übermittelt.","Payback","1","undefined","3","0","1","60","1080","211","5","1","846","0","legacy","[11, 21, 31, 41, 51, 61, 71, 81, 91, 101, 111, 121, 131, 141, 151, 161, 171, 181, 191, 201, 211, 221, 231, 241, 251, 261, 271, 281, 291, 301, 311, 321, 331, 341, 351, 361, 371, 381, 391, 401, 411, 421, 431, 441, 451, 461, 471, 481, 491, 501, 511, 521, 531, 541, 551, 561, 571, 581, 591, 601, 611, 621, 631, 641, 651, 661, 671, 681, 691, 701, 711, 721, 731, 741, 751, 761, 771, 781, 791, 801, 811, 821, 831, 841]","1095","1920","[960, 960, 960, 960, 960, 960, 960, 960, 960, 960, 960, 960, 960, 964, 975, 981, 989, 995, 1010, 1023, 1036, 1057, 1104, 1127, 1161, 1193, 1256, 1291, 1329, 1350, 1396, 1425, 1445, 1468, 1510, 1526, 1537, 1552, 1574, 1587, 1597, 1605, 1625, 1632, 1642, 1650, 1661, 1665, 1668, 1670, 1675, 1678, 1679, 1682, 1687, 1687, 1692, 1693, 1702, 1705, 1709, 1713, 1722, 1725, 1728, 1731, 1739, 1740, 1744, 1744, 1748, 1750, 1754, 1756, 1760, 1762, 1764, 1764, 1766, 1766, 1766, 1766, 1766, 1766]","[1010, 1010, 1010, 1010, 1010, 1010, 1010, 1010, 1010, 1010, 1010, 1010, 1010, 1006, 996, 990, 983, 978, 964, 950, 938, 917, 875, 849, 820, 792, 738, 709, 686, 665, 629, 608, 590, 572, 534, 518, 505, 487, 460, 443, 429, 413, 384, 371, 352, 339, 313, 303, 293, 285, 270, 264, 259, 254, 246, 241, 234, 230, 216, 210, 201, 193, 176, 169, 163, 155, 143, 138, 131, 128, 119, 114, 109, 105, 98, 93, 90, 86, 84, 83, 83, 83, 83, 83]"
"Trust","Teilnehmer A hat Ihnen 2 Punkte übermittelt.","Payback","1","undefined","4","0","1","60","1080","171","5","1","789","0","legacy","[11, 21, 31, 41, 51, 61, 71, 81, 91, 101, 111, 121, 131, 141, 151, 161, 171, 181, 191, 201, 211, 221, 231, 241, 251, 261, 271, 281, 291, 301, 311, 321, 331, 341, 351, 361, 371, 381, 391, 401, 411, 421, 431, 441, 451, 461, 471, 481, 491, 501, 511, 521, 531, 541, 551, 561, 571, 581, 591, 601, 611, 621, 631, 641, 651, 661, 671, 681, 691, 701, 711, 721, 731, 741, 751, 761, 771, 781]","1095","1920","[960, 960, 960, 960, 960, 960, 960, 960, 961, 965, 974, 981, 989, 1002, 1026, 1044, 1064, 1095, 1156, 1194, 1230, 1265, 1341, 1379, 1416, 1451, 1507, 1536, 1565, 1590, 1644, 1672, 1705, 1731, 1785, 1807, 1834, 1852, 1893, 1910, 1919, 1919, 1919, 1919, 1919, 1919, 1919, 1919, 1919, 1919, 1919, 1919, 1919, 1919, 1919, 1918, 1917, 1915, 1912, 1910, 1908, 1903, 1895, 1891, 1886, 1882, 1876, 1873, 1872, 1870, 1869, 1869, 1867, 1867, 1867, 1867, 1867, 1867]","[1010, 1010, 1010, 1010, 1010, 1010, 1010, 1010, 1009, 1007, 998, 992, 986, 977, 960, 946, 930, 909, 867, 846, 826, 805, 765, 747, 730, 711, 673, 647, 620, 593, 530, 496, 454, 420, 344, 311, 277, 242, 171, 139, 110, 83, 35, 15, 0, 0, 0, 0, 0, 0, 0, 0, 0, 0, 0, 0, 0, 1, 5, 6, 8, 11, 18, 21, 24, 28, 33, 36, 37, 38, 39, 40, 41, 41, 41, 41, 41, 41]"
"Trust","Teilnehmer A hat Ihnen 2 Punkte übermittelt.","Payback","0","undefined","5","0","1","60","1080","161","10","2","726","0","legacy","[11, 21, 31, 41, 51, 61, 71, 81, 91, 101, 111, 121, 131, 141, 151, 161, 171, 181, 191, 201, 211, 221, 231, 241, 251, 261, 271, 281, 291, 301, 311, 321, 331, 341, 351, 361, 371, 381, 391, 401, 411, 421, 431, 441, 451, 461, 471, 481, 491, 501, 511, 521, 531, 541, 551, 561, 571, 581, 591, 601, 611, 621, 631, 641, 651, 661, 671, 681, 691, 701, 711, 721]","1095","1920","[960, 960, 960, 960, 960, 960, 960, 960, 960, 960, 959, 958, 955, 950, 930, 912, 888, 859, 781, 739, 685, 634, 522, 465, 403, 349, 236, 186, 140, 98, 28, 1, 0, 0, 0, 0, 0, 0, 0, 0, 2, 5, 8, 11, 14, 14, 18, 22, 27, 30, 41, 47, 53, 62, 78, 88, 97, 104, 115, 120, 121, 125, 129, 129, 130, 130, 130, 130, 131, 132, 132, 132]","[1010, 1010, 1010, 1010, 1010, 1010, 1010, 1010, 1010, 1010, 1008, 1004, 994, 982, 952, 929, 900, 873, 794, 751, 702, 655, 541, 486, 426, 371, 271, 220, 171, 123, 46, 9, 0, 0, 0, 0, 0, 0, 0, 0, 0, 0, 0, 0, 0, 0, 0, 1, 4, 6, 11, 15, 19, 23, 32, 36, 40, 45, 52, 55, 56, 58, 61, 61, 61, 62, 62, 62, 62, 63, 63, 63]"
"Promise","Wie oft werden Sie die Hälfte zurückgeben?","Promise","1","undefined","5","0","2","60","1080","161","10","1","856","0","legacy","[11, 21, 31, 41, 51, 61, 71, 81, 91, 101, 111, 121, 131, 141, 151, 161, 171, 181, 191, 201, 211, 221, 231, 241, 251, 261, 271, 281, 291, 301, 311, 321, 331, 341, 351, 361, 371, 381, 391, 401, 411, 421, 431, 441, 451, 461, 471, 481, 491, 501, 511, 521, 531, 541, 551, 561, 571, 581, 591, 601, 611, 621, 631, 641, 651, 661, 671, 681, 691, 701, 711, 721, 731, 741, 751, 761, 771, 781, 791, 801, 811, 821, 831, 841, 851]","1095","1920","[960, 960, 960, 960, 960, 960, 960, 960, 960, 960, 960, 960, 962, 966, 972, 993, 1016, 1034, 1056, 1105, 1130, 1159, 1187, 1242, 1265, 1286, 1310, 1349, 1369, 1384, 1401, 1433, 1454, 1468, 1484, 1504, 1512, 1518, 1522, 1526, 1528, 1528, 1529, 1533, 1535, 1537, 1543, 1550, 1556, 1562, 1567, 1581, 1588, 1593, 1600, 1611, 1618, 1623, 1629, 1643, 1649, 1657, 1663, 1675, 1678, 1685, 1690, 1698, 1703, 1708, 1714, 1723, 1727, 1731, 1733, 1736, 1737, 1737, 1737, 1737, 1737, 1737, 1737, 1737, 1737]","[1010, 1010, 1010, 1010, 1010, 1010, 1010, 1010, 1010, 1009, 1005, 996, 987, 977, 964, 934, 908, 889, 868, 827, 809, 787, 764, 720, 700, 681, 659, 625, 599, 581, 560, 524, 499, 483, 465, 436, 425, 413, 405, 388, 378, 374, 367, 349, 339, 330, 320, 302, 292, 283, 273, 250, 240, 230, 218, 200, 190, 183, 174, 159, 151, 145, 139, 129, 125, 120, 116, 109, 105, 100, 95, 90, 86, 84, 82, 81, 80, 80, 80, 80, 80, 80, 80, 79, 79]"
"Trust","Teilnehmer A hat Ihnen 2 Punkte übermittelt.","Payback","1","undefined","6","0","2","60","1080","171","5","1","845","0","legacy","[11, 21, 31, 41, 51, 61, 71, 81, 91, 101, 111, 121, 131, 141, 151, 161, 171, 181, 191, 201, 211, 221, 231, 241, 251, 261, 271, 281, 291, 301, 311, 321, 331, 341, 351, 361, 371, 381, 391, 401, 411, 421, 431, 441, 451, 461, 471, 481, 491, 501, 511, 521, 531, 541, 551, 561, 571, 581, 591, 601, 611, 621, 631, 641, 651, 661, 671, 681, 691, 701, 711, 721, 731, 741, 751, 761, 771, 781, 791, 801, 811, 821, 831, 841]","1095","1920","[960, 960, 960, 960, 960, 960, 960, 960, 960, 960, 960, 962, 965, 969, 984, 996, 1011, 1028, 1059, 1076, 1091, 1110, 1148, 1166, 1179, 1194, 1218, 1227, 1235, 1244, 1259, 1268, 1274, 1282, 1298, 1309, 1318, 1328, 1353, 1368, 1382, 1400, 1428, 1439, 1456, 1466, 1491, 1500, 1512, 1523, 1544, 1552, 1562, 1568, 1586, 1595, 1605, 1613, 1632, 1643, 1653, 1663, 1678, 1686, 1691, 1695, 1699, 1701, 1701, 1702, 1703, 1703, 1703, 1703, 1704, 1704, 1705, 1706, 1706, 1706, 1706, 1706, 1706, 1706]","[1010, 1010, 1010, 1010, 1010, 1010, 1010, 1010, 1010, 1010, 1010, 1004, 997, 987, 963, 945, 925, 907, 871, 853, 835, 816, 782, 765, 756, 740, 718, 709, 698, 687, 670, 660, 652, 643, 624, 610, 600, 589, 558, 540, 525, 505, 467, 450, 425, 413, 374, 360, 345, 331, 304, 294, 283, 272, 251, 240, 229, 222, 202, 194, 185, 178, 164, 159, 155, 151, 146, 145, 144, 143, 142, 142, 142, 142, 140, 140, 140, 139, 139, 139, 139, 139, 139, 139]"
"NoTrust","Teilnehmer A hat Ihnen keine 2 Punkte übermittelt.","Payback","1","undefined","7","0","2","60","1080","171","0","1","845","0","legacy","[11, 21, 31, 41, 51, 61, 71, 81, 91, 101, 111, 121, 131, 141, 151, 161, 171, 181, 191, 201, 211, 221, 231, 241, 251, 261, 271, 281, 291, 301, 311, 321, 331, 341, 351, 361, 371, 381, 391, 401, 411, 421, 431, 441, 451, 461, 471, 481, 491, 501, 511, 521, 531, 541, 551, 561, 571, 581, 591, 601, 611, 621, 631, 641, 651, 661, 671, 681, 691, 701, 711, 721, 731, 741, 751, 761, 771, 781, 791, 801, 811, 821, 831, 841]","1095","1920","[960, 960, 960, 960, 960, 960, 960, 960, 960, 960, 960, 962, 965, 969, 984, 996, 1011, 1028, 1059, 1076, 1091, 1110, 1148, 1166, 1179, 1194, 1218, 1227, 1235, 1244, 1259, 1268, 1274, 1282, 1298, 1309, 1318, 1328, 1353, 1368, 1382, 1400, 1428, 1439, 1456, 1466, 1491, 1500, 1512, 1523, 1544, 1552, 1562, 1568, 1586, 1595, 1605, 1613, 1632, 1643, 1653, 1663, 1678, 1686, 1691, 1695, 1699, 1701, 1701, 1702, 1703, 1703, 1703, 1703, 1704, 1704, 1705, 1706, 1706, 1706, 1706, 1706, 1706, 1706]","[1010, 1010, 1010, 1010, 1010, 1010, 1010, 1010, 1010, 1010, 1010, 1004, 997, 987, 963, 945, 925, 907, 871, 853, 835, 816, 782, 765, 756, 740, 718, 709, 698, 687, 670, 660, 652, 643, 624, 610, 600, 589, 558, 540, 525, 505, 467, 450, 425, 413, 374, 360, 345, 331, 304, 294, 283, 272, 251, 240, 229, 222, 202, 194, 185, 178, 164, 159, 155, 151, 146, 145, 144, 143, 142, 142, 142, 142, 140, 140, 140, 139, 139, 139, 139, 139, 139, 139]"
"Trust","Teilnehmer A hat Ihnen 2 Punkte übermittelt.","Payback","1","undefined","8","0","2","60","1080","291","5","1","997","0","legacy","[11, 21, 31, 41, 51, 61, 71, 81, 91, 101, 111, 121, 131, 141, 151, 161, 171, 181, 191, 201, 211, 221, 231, 241, 251, 261, 271, 281, 291, 301, 311, 321, 331, 341, 351, 361, 371, 381, 391, 401, 411, 421, 431, 441, 451, 461, 471, 481, 491, 501, 511, 521, 531, 541, 551, 561, 571, 581, 591, 601, 611, 621, 631, 641, 651, 661, 671, 681, 691, 701, 711, 721, 731, 741, 751, 761, 771, 781, 791, 801, 811, 821, 831, 841, 851, 861, 871, 881, 891, 901, 911, 921, 931, 941, 951, 961, 971, 981, 991]","1095","1920","[960, 960, 960, 960, 960, 960, 960, 960, 960, 960, 960, 960, 960, 960, 960, 960, 960, 960, 966, 969, 977, 980, 990, 998, 1004, 1012, 1040, 1056, 1075, 1100, 1146, 1171, 1195, 1220, 1272, 1297, 1318, 1338, 1379, 1398, 1415, 1426, 1458, 1471, 1488, 1503, 1528, 1539, 1549, 1561, 1574, 1580, 1588, 1594, 1603, 1605, 1609, 1611, 1615, 1616, 1617, 1620, 1625, 1627, 1632, 1636, 1644, 1647, 1649, 1654, 1663, 1668, 1673, 1677, 1687, 1691, 1696, 1701, 1710, 1715, 1718, 1726, 1734, 1739, 1741, 1747, 1753, 1753, 1753, 1754, 1754, 1754, 1754, 1754, 1754, 1754, 1754, 1754, 1754]","[1010, 1010, 1010, 1010, 1010, 1010, 1010, 1010, 1010, 1010, 1010, 1010, 1010, 1010, 1010, 1010, 1010, 1010, 1010, 1008, 1004, 1002, 994, 988, 982, 977, 959, 951, 939, 926, 899, 884, 870, 855, 823, 804, 789, 773, 736, 718, 697, 683, 638, 620, 595, 575, 534, 515, 496, 477, 447, 434, 421, 408, 383, 372, 361, 350, 327, 318, 308, 297, 276, 266, 255, 245, 226, 219, 213, 206, 192, 186, 179, 174, 164, 161, 157, 154, 146, 141, 140, 135, 128, 125, 123, 119, 116, 115, 115, 114, 114, 114, 114, 114, 114, 114, 114, 114, 114]"
"Promise","Wie oft werden Sie die Hälfte zurückgeben?","Promise","1","undefined","8","0","3","60","1080","271","5","1","937","0","legacy","[11, 21, 31, 41, 51, 61, 71, 81, 91, 101, 111, 121, 131, 141, 151, 161, 171, 181, 191, 201, 211, 221, 231, 241, 251, 261, 271, 281, 291, 301, 311, 321, 331, 341, 351, 361, 371, 381, 391, 401, 411, 421, 431, 441, 451, 461, 471, 481, 491, 501, 511, 521, 531, 541, 551, 561, 571, 581, 591, 601, 611, 621, 631, 641, 651, 661, 671, 681, 691, 701, 711, 721, 731, 741, 751, 761, 771, 781, 791, 801, 811, 821, 831, 841, 851, 861, 871, 881, 891, 901, 911, 921, 931]","1095","1920","[960, 960, 960, 960, 960, 960, 960, 960, 960, 960, 960, 960, 960, 960, 960, 960, 960, 960, 961, 963, 971, 977, 988, 1000, 1032, 1053, 1077, 1104, 1158, 1187, 1207, 1237, 1285, 1306, 1329, 1350, 1400, 1424, 1449, 1475, 1519, 1539, 1562, 1585, 1625, 1644, 1662, 1674, 1699, 1711, 1722, 1733, 1753, 1763, 1773, 1781, 1795, 1801, 1805, 1808, 1813, 1814, 1814, 1814, 1814, 1814, 1814, 1814, 1814, 1814, 1814, 1814, 1814, 1814, 1814, 1814, 1814, 1814, 1814, 1814, 1813, 1813, 1812, 1812, 1808, 1808, 1807, 1804, 1803, 1803, 1802, 1802, 1801]","[1010, 1010, 1010, 1010, 1010, 1010, 1010, 1010, 1010, 1010, 1010, 1010, 1010, 1010, 1010, 1010, 1010, 1010, 1010, 1009, 1000, 995, 989, 982, 962, 949, 938, 923, 894, 881, 867, 851, 815, 797, 779, 758, 702, 674, 642, 611, 549, 516, 487, 452, 386, 348, 318, 286, 228, 202, 176, 154, 113, 94, 73, 59, 33, 23, 15, 7, 0, 0, 0, 0, 0, 0, 0, 0, 0, 0, 0, 0, 0, 0, 0, 0, 0, 0, 2, 4, 8, 11, 15, 18, 26, 28, 31, 34, 37, 39, 40, 40, 41]"
"Trust","Teilnehmer A hat Ihnen 2 Punkte übermittelt.","Payback","1","undefined","9","0","3","60","1080","211","5","1","734","0","legacy","[11, 21, 31, 41, 51, 61, 71, 81, 91, 101, 111, 121, 131, 141, 151, 161, 171, 181, 191, 201, 211, 221, 231, 241, 251, 261, 271, 281, 291, 301, 311, 321, 331, 341, 351, 361, 371, 381, 391, 401, 411, 421, 431, 441, 451, 461, 471, 481, 491, 501, 511, 521, 531, 541, 551, 561, 571, 581, 591, 601, 611, 621, 631, 641, 651, 661, 671, 681, 691, 701, 711, 721, 731]","1095","1920","[960, 960, 960, 960, 960, 960, 960, 960, 960, 960, 960, 960, 960, 964, 977, 985, 994, 1005, 1030, 1051, 1091, 1123, 1189, 1224, 1251, 1277, 1314, 1328, 1342, 1358, 1385, 1400, 1414, 1425, 1455, 1473, 1485, 1496, 1525, 1539, 1550, 1561, 1585, 1597, 1611, 1618, 1640, 1649, 1656, 1666, 1679, 1683, 1687, 1692, 1699, 1701, 1704, 1704, 1707, 1707, 1709, 1710, 1713, 1713, 1715, 1715, 1717, 1717, 1717, 1717, 1717, 1717, 1717]","[1010, 1010, 1010, 1010, 1010, 1010, 1010, 1010, 1010, 1010, 1010, 1009, 1008, 1005, 997, 990, 985, 975, 960, 944, 923, 909, 880, 864, 848, 830, 803, 788, 770, 750, 713, 692, 673, 656, 614, 588, 569, 548, 499, 472, 448, 424, 374, 345, 318, 298, 251, 230, 210, 194, 164, 154, 144, 135, 124, 122, 120, 119, 118, 118, 116, 116, 116, 116, 114, 114, 114, 114, 114, 114, 114, 114, 114]"
"Trust","Teilnehmer A hat Ihnen 2 Punkte übermittelt.","Payback","1","undefined","10","0","3","60","1080","231","5","1","853","0","legacy","[11, 21, 31, 41, 51, 61, 71, 81, 91, 101, 111, 121, 131, 141, 151, 161, 171, 181, 191, 201, 211, 221, 231, 241, 251, 261, 271, 281, 291, 301, 311, 321, 331, 341, 351, 361, 371, 381, 391, 401, 411, 421, 431, 441, 451, 461, 471, 481, 491, 501, 511, 521, 531, 541, 551, 561, 571, 581, 591, 601, 611, 621, 631, 641, 651, 661, 671, 681, 691, 701, 711, 721, 731, 741, 751, 761, 771, 781, 791, 801, 811, 821, 831, 841, 851]","1095","1920","[960, 960, 960, 960, 960, 960, 960, 960, 960, 960, 961, 963, 963, 965, 974, 980, 988, 996, 1013, 1022, 1036, 1054, 1094, 1113, 1136, 1166, 1233, 1271, 1316, 1356, 1436, 1476, 1510, 1540, 1599, 1627, 1649, 1670, 1706, 1722, 1738, 1752, 1769, 1775, 1782, 1786, 1795, 1797, 1800, 1800, 1801, 1802, 1802, 1803, 1803, 1804, 1805, 1805, 1806, 1807, 1809, 1810, 1811, 1811, 1814, 1814, 1816, 1816, 1818, 1818, 1819, 1819, 1819, 1819, 1820, 1821, 1821, 1822, 1823, 1823, 1823, 1823, 1823, 1823, 1823]","[1010, 1010, 1010, 1010, 1010, 1010, 1010, 1010, 1010, 1010, 1010, 1010, 1010, 1010, 1009, 1004, 999, 994, 980, 971, 958, 944, 905, 887, 858, 826, 751, 713, 674, 640, 570, 537, 506, 476, 417, 387, 364, 338, 299, 280, 260, 245, 227, 221, 212, 207, 197, 193, 190, 188, 187, 185, 184, 182, 180, 176, 174, 171, 166, 162, 159, 155, 146, 140, 134, 131, 121, 117, 114, 111, 106, 103, 102, 100, 98, 96, 94, 92, 91, 91, 91, 91, 91, 91, 91]"
"Trust","Teilnehmer A hat Ihnen 2 Punkte übermittelt.","Payback","1","undefined","11","0","3","60","1080","211","5","1","796","0","legacy","[11, 21, 31, 41, 51, 61, 71, 81, 91, 101, 111, 121, 131, 141, 151, 161, 171, 181, 191, 201, 211, 221, 231, 241, 251, 261, 271, 281, 291, 301, 311, 321, 331, 341, 351, 361, 371, 381, 391, 401, 411, 421, 431, 441, 451, 461, 471, 481, 491, 501, 511, 521, 531, 541, 551, 561, 571, 581, 591, 601, 611, 621, 631, 641, 651, 661, 671, 681, 691, 701, 711, 721, 731, 741, 751, 761, 771, 781, 791]","1095","1920","[960, 960, 960, 960, 960, 960, 960, 960, 960, 960, 959, 959, 960, 969, 977, 985, 996, 1016, 1028, 1044, 1057, 1104, 1133, 1178, 1217, 1300, 1348, 1393, 1436, 1524, 1565, 1604, 1639, 1713, 1745, 1774, 1802, 1847, 1866, 1878, 1889, 1909, 1915, 1918, 1919, 1919, 1919, 1919, 1919, 1919, 1919, 1919, 1919, 1919, 1919, 1919, 1919, 1919, 1919, 1919, 1918, 1911, 1906, 1900, 1895, 1879, 1871, 1864, 1859, 1850, 1845, 1843, 1842, 1842, 1842, 1842, 1842, 1842, 1842]","[1010, 1010, 1010, 1010, 1010, 1010, 1010, 1010, 1010, 1010, 1009, 1009, 1006, 998, 990, 985, 979, 965, 955, 941, 928, 888, 863, 826, 794, 724, 682, 642, 604, 528, 489, 447, 409, 331, 291, 255, 220, 154, 126, 94, 78, 43, 33, 24, 16, 7, 6, 4, 4, 4, 4, 4, 4, 4, 4, 4, 4, 4, 4, 4, 4, 8, 12, 16, 19, 30, 35, 39, 44, 52, 56, 58, 59, 59, 59, 59, 59, 59, 59]"
"Promise","Wie oft werden Sie die Hälfte zurückgeben?","Promise","1","undefined","11","0","4","60","1080","181","5","1","991","0","legacy","[11, 21, 31, 41, 51, 61, 71, 81, 91, 101, 111, 121, 131, 141, 151, 161, 171, 181, 191, 201, 211, 221, 231, 241, 251, 261, 271, 281, 291, 301, 311, 321, 331, 341, 351, 361, 371, 381, 391, 401, 411, 421, 431, 441, 451, 461, 471, 481, 491, 501, 511, 521, 531, 541, 551, 561, 571, 581, 591, 601, 611, 621, 631, 641, 651, 661, 671, 681, 691, 701, 711, 721, 731, 741, 751, 761, 771, 781, 791, 801, 811, 821, 831, 841, 851, 861, 871, 881, 891, 901, 911, 921, 931, 941, 951, 961, 971, 981, 991]","1095","1920","[960, 960, 960, 960, 960, 960, 960, 960, 960, 960, 960, 965, 972, 983, 993, 1025, 1042, 1061, 1086, 1136, 1162, 1190, 1215, 1258, 1281, 1301, 1319, 1354, 1365, 1378, 1390, 1411, 1418, 1426, 1433, 1446, 1451, 1457, 1463, 1473, 1478, 1485, 1490, 1501, 1506, 1509, 1514, 1523, 1528, 1531, 1537, 1547, 1551, 1555, 1561, 1568, 1572, 1574, 1577, 1581, 1584, 1586, 1587, 1595, 1599, 1603, 1607, 1617, 1623, 1630, 1637, 1654, 1663, 1671, 1678, 1696, 1703, 1710, 1716, 1730, 1737, 1743, 1747, 1755, 1758, 1762, 1764, 1767, 1767, 1767, 1767, 1767, 1767, 1768, 1768, 1768, 1768, 1769, 1769]","[1010, 1010, 1010, 1010, 1010, 1010, 1010, 1010, 1010, 1010, 1010, 1010, 1005, 998, 988, 962, 947, 930, 911, 876, 857, 838, 820, 788, 772, 756, 740, 710, 700, 685, 671, 642, 630, 617, 606, 581, 570, 560, 550, 529, 520, 508, 498, 478, 468, 458, 447, 427, 416, 406, 394, 373, 363, 352, 342, 326, 317, 311, 305, 295, 290, 285, 281, 267, 262, 256, 250, 239, 232, 226, 219, 206, 197, 191, 184, 168, 161, 153, 146, 129, 121, 115, 110, 100, 97, 93, 91, 86, 85, 85, 85, 85, 85, 84, 84, 84, 84, 84, 84]"
"Trust","Teilnehmer A hat Ihnen 2 Punkte übermittelt.","Payback","1","undefined","12","0","4","60","1080","191","5","1","749","0","legacy","[11, 21, 31, 41, 51, 61, 71, 81, 91, 101, 111, 121, 131, 141, 151, 161, 171, 181, 191, 201, 211, 221, 231, 241, 251, 261, 271, 281, 291, 301, 311, 321, 331, 341, 351, 361, 371, 381, 391, 401, 411, 421, 431, 441, 451, 461, 471, 481, 491, 501, 511, 521, 531, 541, 551, 561, 571, 581, 591, 601, 611, 621, 631, 641, 651, 661, 671, 681, 691, 701, 711, 721, 731, 741]","1095","1920","[960, 960, 960, 960, 960, 960, 960, 960, 960, 960, 962, 966, 969, 976, 991, 1000, 1009, 1018, 1047, 1068, 1084, 1097, 1138, 1160, 1184, 1206, 1246, 1266, 1285, 1303, 1342, 1358, 1374, 1384, 1414, 1430, 1444, 1459, 1494, 1511, 1527, 1541, 1568, 1579, 1587, 1593, 1611, 1618, 1625, 1630, 1641, 1645, 1647, 1650, 1651, 1651, 1651, 1651, 1652, 1652, 1652, 1652, 1652, 1652, 1652, 1652, 1653, 1653, 1655, 1656, 1656, 1656, 1656, 1656]","[1010, 1010, 1010, 1010, 1010, 1010, 1010, 1010, 1010, 1010, 1010, 1008, 1007, 1003, 991, 982, 974, 964, 936, 914, 899, 879, 837, 815, 791, 767, 721, 695, 669, 646, 590, 565, 538, 517, 465, 438, 413, 389, 341, 316, 291, 271, 232, 217, 206, 194, 170, 161, 149, 142, 127, 121, 116, 111, 109, 108, 108, 108, 107, 107, 107, 107, 107, 107, 107, 107, 107, 107, 107, 107, 107, 107, 107, 107]"
"Trust","Teilnehmer A hat Ihnen 2 Punkte übermittelt.","Payback","1","undefined","13","0","4","60","1080","161","5","1","908","0","legacy","[11, 21, 31, 41, 51, 61, 71, 81, 91, 101, 111, 121, 131, 141, 151, 161, 171, 181, 191, 201, 211, 221, 231, 241, 251, 261, 271, 281, 291, 301, 311, 321, 331, 341, 351, 361, 371, 381, 391, 401, 411, 421, 431, 441, 451, 461, 471, 481, 491, 501, 511, 521, 531, 541, 551, 561, 571, 581, 591, 601, 611, 621, 631, 641, 651, 661, 671, 681, 691, 701, 711, 721, 731, 741, 751, 761, 771, 781, 791, 801, 811, 821, 831, 841, 851, 861, 871, 881, 891, 901]","1095","1920","[960, 960, 960, 960, 960, 960, 960, 960, 960, 960, 960, 960, 966, 974, 984, 999, 1019, 1061, 1077, 1099, 1125, 1179, 1199, 1222, 1254, 1304, 1326, 1350, 1378, 1420, 1437, 1459, 1477, 1511, 1524, 1537, 1549, 1568, 1578, 1586, 1597, 1615, 1623, 1632, 1641, 1656, 1662, 1670, 1676, 1689, 1695, 1699, 1704, 1712, 1714, 1717, 1720, 1724, 1728, 1730, 1733, 1737, 1738, 1740, 1741, 1744, 1746, 1746, 1748, 1750, 1751, 1752, 1753, 1754, 1755, 1757, 1758, 1760, 1761, 1761, 1762, 1765, 1765, 1766, 1766, 1766, 1766, 1766, 1766, 1766]","[1010, 1010, 1010, 1010, 1010, 1010, 1010, 1010, 1010, 1008, 1003, 995, 985, 963, 945, 923, 900, 850, 830, 806, 784, 744, 728, 710, 684, 635, 612, 588, 558, 511, 491, 469, 446, 407, 394, 377, 362, 340, 329, 321, 308, 290, 283, 275, 269, 258, 252, 246, 241, 231, 227, 224, 220, 213, 210, 208, 204, 199, 195, 193, 189, 182, 180, 176, 172, 166, 162, 162, 159, 154, 151, 150, 148, 144, 142, 140, 137, 135, 132, 131, 130, 126, 125, 124, 124, 124, 124, 124, 124, 124]"
"Trust","Teilnehmer A hat Ihnen 2 Punkte übermittelt.","Payback","1","undefined","14","0","4","60","1080","161","5","1","877","0","legacy","[11, 21, 31, 41, 51, 61, 71, 81, 91, 101, 111, 121, 131, 141, 151, 161, 171, 181, 191, 201, 211, 221, 231, 241, 251, 261, 271, 281, 291, 301, 311, 321, 331, 341, 351, 361, 371, 381, 391, 401, 411, 421, 431, 441, 451, 461, 471, 481, 491, 501, 511, 521, 531, 541, 551, 561, 571, 581, 591, 601, 611, 621, 631, 641, 651, 661, 671, 681, 691, 701, 711, 721, 731, 741, 751, 761, 771, 781, 791, 801, 811, 821, 831, 841, 851, 861, 871]","1095","1920","[960, 960, 960, 960, 960, 960, 960, 961, 962, 963, 967, 971, 977, 986, 1008, 1023, 1046, 1071, 1134, 1175, 1212, 1251, 1325, 1359, 1396, 1425, 1481, 1503, 1521, 1539, 1562, 1571, 1577, 1581, 1588, 1589, 1592, 1594, 1597, 1597, 1597, 1597, 1597, 1597, 1597, 1597, 1597, 1597, 1597, 1597, 1597, 1597, 1597, 1597, 1597, 1597, 1597, 1597, 1604, 1607, 1613, 1620, 1633, 1643, 1650, 1660, 1676, 1683, 1692, 1697, 1704, 1707, 1709, 1710, 1711, 1711, 1711, 1711, 1711, 1711, 1711, 1711, 1711, 1711, 1711, 1711, 1711]","[1010, 1010, 1010, 1010, 1010, 1010, 1010, 1010, 1008, 1007, 998, 991, 983, 971, 946, 928, 902, 873, 806, 766, 721, 675, 587, 545, 502, 466, 390, 359, 334, 301, 251, 230, 211, 196, 174, 166, 158, 152, 147, 146, 145, 145, 145, 145, 145, 145, 145, 145, 145, 146, 146, 148, 148, 148, 148, 148, 148, 148, 149, 148, 146, 144, 141, 138, 136, 132, 126, 122, 119, 116, 111, 109, 107, 107, 105, 105, 105, 105, 105, 105, 105, 105, 105, 105, 105, 105, 105]"
"Promise","Wie oft werden Sie die Hälfte zurückgeben?","Promise","1","undefined","14","0","5","60","1080","211","5","1","904","0","legacy","[11, 21, 31, 41, 51, 61, 71, 81, 91, 101, 111, 121, 131, 141, 151, 161, 171, 181, 191, 201, 211, 221, 231, 241, 251, 261, 271, 281, 291, 301, 311, 321, 331, 341, 351, 361, 371, 381, 391, 401, 411, 421, 431, 441, 451, 461, 471, 481, 491, 501, 511, 521, 531, 541, 551, 561, 571, 581, 591, 601, 611, 621, 631, 641, 651, 661, 671, 681, 691, 701, 711, 721, 731, 741, 751, 761, 771, 781, 791, 801, 811, 821, 831, 841, 851, 861, 871, 881, 891, 901]","1095","1920","[960, 960, 960, 960, 960, 960, 960, 960, 960, 960, 960, 960, 960, 960, 963, 967, 971, 976, 983, 1002, 1017, 1035, 1058, 1116, 1149, 1175, 1207, 1259, 1282, 1308, 1334, 1381, 1404, 1428, 1454, 1515, 1541, 1569, 1590, 1631, 1652, 1670, 1688, 1723, 1738, 1751, 1760, 1777, 1786, 1791, 1795, 1798, 1798, 1799, 1800, 1801, 1801, 1801, 1801, 1802, 1803, 1803, 1803, 1803, 1803, 1803, 1803, 1803, 1803, 1802, 1801, 1800, 1798, 1798, 1796, 1795, 1795, 1795, 1793, 1792, 1791, 1789, 1789, 1787, 1786, 1786, 1786, 1785, 1785, 1785]","[1010, 1010, 1010, 1010, 1010, 1010, 1010, 1010, 1010, 1010, 1009, 1006, 1004, 1002, 997, 987, 979, 973, 965, 943, 929, 914, 898, 857, 837, 814, 790, 747, 727, 706, 681, 643, 623, 601, 579, 527, 501, 471, 443, 387, 356, 326, 296, 238, 209, 187, 164, 125, 107, 92, 79, 59, 52, 45, 38, 29, 25, 24, 20, 19, 18, 18, 18, 18, 18, 18, 17, 17, 17, 17, 17, 18, 20, 21, 24, 25, 27, 29, 32, 34, 36, 38, 39, 42, 45, 46, 46, 49, 49, 49]"
"Trust","Teilnehmer A hat Ihnen 2 Punkte übermittelt.","Payback","1","undefined","15","0","5","60","1080","321","5","1","1253","0","legacy","[11, 21, 31, 41, 51, 61, 71, 81, 91, 101, 111, 121, 131, 141, 151, 161, 171, 181, 191, 201, 211, 221, 231, 241, 251, 261, 271, 281, 291, 301, 311, 321, 331, 341, 351, 361, 371, 381, 391, 401, 411, 421, 431, 441, 451, 461, 471, 481, 491, 501, 511, 521, 531, 541, 551, 561, 571, 581, 591, 601, 611, 621, 631, 641, 651, 661, 671, 681, 691, 701, 711, 721, 731, 741, 751, 761, 771, 781, 791, 801, 811, 821, 831, 841, 851, 861, 871, 881, 891, 901, 911, 921, 931, 941, 951, 961, 971, 981, 991, 1001, 1011, 1021, 1031, 1041, 1051, 1061, 1071, 1081, 1091, 1101, 1111, 1121, 1131, 1141, 1151, 1161, 1171, 1181, 1191, 1201, 1211, 1221, 1231, 1241, 1251]","1095","1920","[960, 960, 960, 960, 960, 960, 960, 960, 960, 960, 964, 965, 967, 969, 972, 974, 975, 976, 977, 978, 979, 979, 981, 981, 984, 988, 996, 1001, 1007, 1017, 1040, 1052, 1071, 1089, 1123, 1141, 1155, 1172, 1203, 1226, 1247, 1273, 1347, 1371, 1388, 1401, 1418, 1427, 1435, 1445, 1466, 1475, 1483, 1494, 1508, 1516, 1523, 1529, 1540, 1547, 1554, 1561, 1576, 1585, 1591, 1599, 1610, 1614, 1618, 1623, 1630, 1634, 1640, 1643, 1650, 1654, 1656, 1659, 1664, 1666, 1669, 1670, 1676, 1679, 1681, 1686, 1691, 1694, 1696, 1699, 1706, 1709, 1710, 1714, 1718, 1720, 1722, 1723, 1726, 1727, 1728, 1729, 1730, 1731, 1731, 1732, 1735, 1735, 1736, 1737, 1738, 1739, 1739, 1739, 1739, 1740, 1740, 1740, 1740, 1740, 1740, 1740, 1740, 1740, 1740]","[1010, 1010, 1010, 1010, 1010, 1010, 1010, 1010, 1010, 1010, 1009, 1007, 1003, 1001, 997, 996, 994, 993, 991, 989, 989, 988, 986, 985, 983, 980, 974, 971, 965, 959, 944, 934, 920, 907, 883, 868, 858, 847, 819, 799, 779, 759, 694, 670, 645, 628, 598, 584, 573, 559, 534, 522, 512, 502, 481, 470, 461, 453, 440, 432, 424, 418, 405, 397, 391, 385, 374, 368, 363, 356, 346, 341, 334, 328, 316, 310, 304, 297, 284, 275, 269, 262, 247, 243, 237, 229, 217, 211, 207, 201, 187, 182, 179, 173, 166, 161, 158, 156, 150, 149, 146, 145, 142, 141, 140, 137, 134, 133, 131, 130, 128, 126, 126, 126, 125, 123, 123, 123, 123, 123, 123, 123, 123, 123, 123]"
"Trust","Teilnehmer A hat Ihnen 2 Punkte übermittelt.","Payback","0","undefined","16","0","5","60","1080","221","10","2","1068","0","legacy","[11, 21, 31, 41, 51, 61, 71, 81, 91, 101, 111, 121, 131, 141, 151, 161, 171, 181, 191, 201, 211, 221, 231, 241, 251, 261, 271, 281, 291, 301, 311, 321, 331, 341, 351, 361, 371, 381, 391, 401, 411, 421, 431, 441, 451, 461, 471, 481, 491, 501, 511, 521, 531, 541, 551, 561, 571, 581, 591, 601, 611, 621, 631, 641, 651, 661, 671, 681, 691, 701, 711, 721, 731, 741, 751, 761, 771, 781, 791, 801, 811, 821, 831, 841, 851, 861, 871, 881, 891, 901, 911, 921, 931, 941, 951, 961, 971, 981, 991, 1001, 1011, 1021, 1031, 1041, 1051, 1061]","1095","1920","[960, 960, 960, 960, 960, 960, 960, 960, 960, 960, 960, 960, 960, 960, 960, 960, 960, 956, 952, 947, 940, 913, 897, 885, 861, 822, 806, 793, 776, 753, 740, 733, 726, 717, 714, 712, 710, 707, 704, 702, 699, 693, 688, 685, 681, 674, 669, 665, 660, 653, 648, 642, 637, 623, 615, 604, 595, 575, 565, 551, 538, 510, 498, 485, 473, 447, 435, 422, 413, 398, 393, 388, 383, 377, 374, 369, 365, 357, 352, 346, 340, 330, 328, 323, 317, 307, 302, 295, 285, 267, 257, 247, 239, 224, 220, 216, 214, 214, 214, 213, 213, 213, 213, 213, 213, 213]","[1010, 1010, 1010, 1010, 1010, 1010, 1010, 1010, 1010, 1010, 1010, 1010, 1010, 1010, 1010, 1010, 1005, 987, 974, 960, 940, 871, 836, 805, 761, 693, 659, 634, 609, 566, 549, 536, 524, 507, 498, 494, 484, 474, 466, 460, 452, 437, 429, 421, 411, 397, 388, 382, 373, 358, 352, 343, 336, 319, 310, 300, 291, 275, 266, 254, 243, 219, 210, 197, 185, 167, 159, 150, 144, 133, 130, 126, 122, 117, 113, 109, 106, 99, 96, 91, 89, 83, 81, 79, 76, 72, 70, 69, 66, 61, 58, 55, 53, 50, 49, 49, 48, 48, 48, 48, 48, 48, 48, 48, 48, 48]"
"NoTrust","Teilnehmer A hat Ihnen keine 2 Punkte übermittelt.","Payback","0","undefined","17","0","5","60","1080","221","0","2","1068","0","legacy","[11, 21, 31, 41, 51, 61, 71, 81, 91, 101, 111, 121, 131, 141, 151, 161, 171, 181, 191, 201, 211, 221, 231, 241, 251, 261, 271, 281, 291, 301, 311, 321, 331, 341, 351, 361, 371, 381, 391, 401, 411, 421, 431, 441, 451, 461, 471, 481, 491, 501, 511, 521, 531, 541, 551, 561, 571, 581, 591, 601, 611, 621, 631, 641, 651, 661, 671, 681, 691, 701, 711, 721, 731, 741, 751, 761, 771, 781, 791, 801, 811, 821, 831, 841, 851, 861, 871, 881, 891, 901, 911, 921, 931, 941, 951, 961, 971, 981, 991, 1001, 1011, 1021, 1031, 1041, 1051, 1061]","1095","1920","[960, 960, 960, 960, 960, 960, 960, 960, 960, 960, 960, 960, 960, 960, 960, 960, 960, 956, 952, 947, 940, 913, 897, 885, 861, 822, 806, 793, 776, 753, 740, 733, 726, 717, 714, 712, 710, 707, 704, 702, 699, 693, 688, 685, 681, 674, 669, 665, 660, 653, 648, 642, 637, 623, 615, 604, 595, 575, 565, 551, 538, 510, 498, 485, 473, 447, 435, 422, 413, 398, 393, 388, 383, 377, 374, 369, 365, 357, 352, 346, 340, 330, 328, 323, 317, 307, 302, 295, 285, 267, 257, 247, 239, 224, 220, 216, 214, 214, 214, 213, 213, 213, 213, 213, 213, 213]","[1010, 1010, 1010, 1010, 1010, 1010, 1010, 1010, 1010, 1010, 1010, 1010, 1010, 1010, 1010, 1010, 1005, 987, 974, 960, 940, 871, 836, 805, 761, 693, 659, 634, 609, 566, 549, 536, 524, 507, 498, 494, 484, 474, 466, 460, 452, 437, 429, 421, 411, 397, 388, 382, 373, 358, 352, 343, 336, 319, 310, 300, 291, 275, 266, 254, 243, 219, 210, 197, 185, 167, 159, 150, 144, 133, 130, 126, 122, 117, 113, 109, 106, 99, 96, 91, 89, 83, 81, 79, 76, 72, 70, 69, 66, 61, 58, 55, 53, 50, 49, 49, 48, 48, 48, 48, 48, 48, 48, 48, 48, 48]"
"Promise","Wie oft werden Sie die Hälfte zurückgeben?","Promise","0","undefined","17","0","6","60","1080","251","0","2","1247","0","legacy","[11, 21, 31, 41, 51, 61, 71, 81, 91, 101, 111, 121, 131, 141, 151, 161, 171, 181, 191, 201, 211, 221, 231, 241, 251, 261, 271, 281, 291, 301, 311, 321, 331, 341, 351, 361, 371, 381, 391, 401, 411, 421, 431, 441, 451, 461, 471, 481, 491, 501, 511, 521, 531, 541, 551, 561, 571, 581, 591, 601, 611, 621, 631, 641, 651, 661, 671, 681, 691, 701, 711, 721, 731, 741, 751, 761, 771, 781, 791, 801, 811, 821, 831, 841, 851, 861, 871, 881, 891, 901, 911, 921, 931, 941, 951, 961, 971, 981, 991, 1001, 1011, 1021, 1031, 1041, 1051, 1061, 1071, 1081, 1091, 1101, 1111, 1121, 1131, 1141, 1151, 1161, 1171, 1181, 1191, 1201, 1211, 1221, 1231, 1241]","1095","1920","[960, 960, 960, 960, 960, 960, 960, 960, 960, 960, 960, 960, 960, 960, 960, 959, 953, 944, 936, 911, 898, 879, 858, 821, 804, 790, 768, 728, 711, 693, 680, 649, 634, 618, 603, 576, 559, 546, 529, 501, 487, 477, 469, 452, 446, 440, 436, 429, 429, 429, 429, 429, 430, 432, 433, 435, 435, 435, 435, 435, 435, 435, 435, 434, 431, 428, 426, 421, 416, 410, 404, 390, 382, 374, 364, 342, 330, 315, 307, 281, 271, 263, 257, 244, 239, 233, 229, 225, 224, 224, 224, 224, 224, 224, 224, 224, 224, 224, 224, 224, 224, 224, 224, 225, 227, 228, 230, 232, 234, 236, 237, 240, 241, 242, 243, 244, 244, 244, 244, 244, 244, 244, 244, 244]","[1010, 1010, 1010, 1010, 1010, 1010, 1010, 1010, 1010, 1010, 1010, 1010, 1010, 1010, 1010, 1010, 1009, 1007, 1003, 994, 986, 978, 967, 947, 936, 927, 913, 886, 873, 856, 845, 815, 797, 779, 761, 724, 699, 679, 661, 619, 597, 579, 560, 530, 518, 505, 494, 475, 468, 463, 456, 444, 440, 435, 427, 417, 411, 404, 399, 385, 378, 373, 364, 350, 342, 333, 323, 304, 294, 281, 267, 241, 222, 207, 188, 150, 131, 106, 90, 46, 28, 14, 0, 0, 0, 0, 0, 0, 0, 0, 0, 0, 0, 0, 0, 0, 0, 0, 0, 0, 0, 0, 0, 5, 10, 13, 18, 27, 33, 37, 40, 46, 48, 50, 51, 52, 52, 52, 52, 52, 52, 52, 52, 52]"
"Trust","Teilnehmer A hat Ihnen 2 Punkte übermittelt.","Payback","1","undefined","18","0","6","60","1080","191","5","1","821","0","legacy","[11, 21, 31, 41, 51, 61, 71, 81, 91, 101, 111, 121, 131, 141, 151, 161, 171, 181, 191, 201, 211, 221, 231, 241, 251, 261, 271, 281, 291, 301, 311, 321, 331, 341, 351, 361, 371, 381, 391, 401, 411, 421, 431, 441, 451, 461, 471, 481, 491, 501, 511, 521, 531, 541, 551, 561, 571, 581, 591, 601, 611, 621, 631, 641, 651, 661, 671, 681, 691, 701, 711, 721, 731, 741, 751, 761, 771, 781, 791, 801, 811, 821]","1095","1920","[960, 960, 960, 960, 960, 960, 960, 960, 960, 960, 960, 960, 961, 965, 966, 970, 973, 979, 982, 986, 991, 1006, 1015, 1023, 1037, 1052, 1079, 1092, 1108, 1124, 1153, 1167, 1179, 1192, 1214, 1229, 1242, 1256, 1280, 1294, 1303, 1317, 1343, 1356, 1370, 1382, 1409, 1425, 1439, 1453, 1472, 1483, 1495, 1503, 1524, 1531, 1542, 1552, 1568, 1575, 1583, 1589, 1604, 1610, 1618, 1625, 1637, 1641, 1643, 1645, 1646, 1647, 1647, 1648, 1648, 1648, 1648, 1648, 1648, 1648, 1648, 1648]","[1010, 1010, 1010, 1010, 1010, 1010, 1010, 1010, 1010, 1007, 1005, 1002, 998, 988, 982, 973, 963, 944, 930, 919, 901, 862, 844, 826, 806, 782, 735, 718, 695, 673, 633, 613, 594, 574, 539, 519, 501, 482, 448, 428, 414, 392, 357, 337, 318, 303, 270, 250, 235, 219, 195, 184, 175, 168, 153, 148, 141, 136, 125, 120, 116, 113, 105, 103, 101, 98, 95, 95, 94, 93, 93, 93, 93, 93, 93, 93, 93, 93, 93, 93, 93, 93]"
"Trust","Teilnehmer A hat Ihnen 2 Punkte übermittelt.","Payback","0","undefined","19","0","6","60","1080","181","10","2","894","0","legacy","[11, 21, 31, 41, 51, 61, 71, 81, 91, 101, 111, 121, 131, 141, 151, 161, 171, 181, 191, 201, 211, 221, 231, 241, 251, 261, 271, 281, 291, 301, 311, 321, 331, 341, 351, 361, 371, 381, 391, 401, 411, 421, 431, 441, 451, 461, 471, 481, 491, 501, 511, 521, 531, 541, 551, 561, 571, 581, 591, 601, 611, 621, 631, 641, 651, 661, 671, 681, 691, 701, 711, 721, 731, 741, 751, 761, 771, 781, 791, 801, 811, 821, 831, 841, 851, 861, 871, 881, 891]","1095","1920","[961, 961, 961, 961, 961, 961, 961, 961, 961, 961, 961, 961, 957, 952, 936, 924, 904, 881, 819, 780, 744, 707, 641, 609, 577, 541, 482, 454, 423, 395, 357, 340, 328, 315, 299, 295, 290, 288, 286, 286, 286, 286, 286, 286, 287, 287, 289, 289, 289, 289, 289, 289, 289, 289, 289, 289, 289, 289, 289, 289, 289, 289, 289, 288, 287, 287, 285, 284, 282, 282, 279, 277, 275, 273, 270, 269, 267, 265, 262, 260, 259, 259, 257, 257, 257, 257, 257, 257, 257]","[1010, 1010, 1010, 1010, 1010, 1010, 1010, 1010, 1010, 1010, 1008, 1006, 1002, 997, 980, 968, 952, 934, 891, 861, 834, 808, 753, 721, 688, 651, 572, 528, 493, 449, 371, 334, 305, 276, 225, 204, 185, 169, 146, 137, 129, 124, 118, 117, 115, 114, 112, 112, 111, 111, 111, 111, 111, 111, 110, 110, 110, 110, 110, 110, 110, 108, 108, 107, 107, 107, 107, 107, 107, 107, 107, 107, 107, 107, 107, 107, 107, 107, 107, 107, 107, 107, 107, 107, 107, 107, 107, 107, 107]"
"Trust","Teilnehmer A hat Ihnen 2 Punkte übermittelt.","Payback","1","undefined","20","0","6","60","1080","151","5","1","789","0","legacy","[11, 21, 31, 41, 51, 61, 71, 81, 91, 101, 111, 121, 131, 141, 151, 161, 171, 181, 191, 201, 211, 221, 231, 241, 251, 261, 271, 281, 291, 301, 311, 321, 331, 341, 351, 361, 371, 381, 391, 401, 411, 421, 431, 441, 451, 461, 471, 481, 491, 501, 511, 521, 531, 541, 551, 561, 571, 581, 591, 601, 611, 621, 631, 641, 651, 661, 671, 681, 691, 701, 711, 721, 731, 741, 751, 761, 771, 781]","1095","1920","[960, 960, 960, 960, 960, 960, 960, 962, 968, 973, 988, 997, 1011, 1023, 1051, 1067, 1083, 1122, 1146, 1165, 1193, 1249, 1277, 1304, 1330, 1373, 1388, 1399, 1411, 1429, 1433, 1441, 1449, 1470, 1481, 1493, 1502, 1535, 1545, 1559, 1570, 1589, 1599, 1601, 1608, 1626, 1635, 1641, 1649, 1658, 1663, 1667, 1669, 1670, 1670, 1670, 1670, 1670, 1670, 1671, 1673, 1674, 1674, 1674, 1675, 1675, 1675, 1675, 1675, 1677, 1677, 1677, 1677, 1677, 1677, 1677, 1677, 1677]","[1010, 1010, 1010, 1010, 1010, 1010, 1010, 1009, 1003, 999, 984, 976, 965, 953, 930, 914, 896, 854, 829, 804, 772, 716, 686, 657, 626, 567, 539, 516, 489, 436, 414, 389, 363, 311, 288, 261, 238, 178, 162, 133, 109, 60, 41, 25, 8, 0, 0, 0, 0, 0, 0, 0, 0, 0, 0, 0, 0, 0, 0, 1, 3, 11, 17, 22, 25, 31, 36, 38, 40, 44, 45, 46, 47, 49, 49, 49, 49, 49]"
"Promise","Wie oft werden Sie die Hälfte zurückgeben?","Promise","0","undefined","20","0","7","60","1080","251","5","2","1143","0","legacy","[11, 21, 31, 41, 51, 61, 71, 81, 91, 101, 111, 121, 131, 141, 151, 161, 171, 181, 191, 201, 211, 221, 231, 241, 251, 261, 271, 281, 291, 301, 311, 321, 331, 341, 351, 361, 371, 381, 391, 401, 411, 421, 431, 441, 451, 461, 471, 481, 491, 501, 511, 521, 531, 541, 551, 561, 571, 581, 591, 601, 611, 621, 631, 641, 651, 661, 671, 681, 691, 701, 711, 721, 731, 741, 751, 761, 771, 781, 791, 801, 811, 821, 831, 841, 851, 861, 871, 881, 891, 901, 911, 921, 931, 941, 951, 961, 971, 981, 991, 1001, 1011, 1021, 1031, 1041, 1051, 1061, 1071, 1081, 1091, 1101, 1111, 1121, 1131, 1141]","1095","1920","[960, 960, 960, 960, 960, 960, 960, 960, 960, 960, 960, 960, 960, 960, 960, 960, 960, 959, 956, 946, 940, 932, 923, 892, 870, 852, 833, 797, 779, 761, 741, 714, 701, 685, 672, 657, 650, 646, 640, 632, 630, 627, 624, 620, 617, 614, 611, 601, 599, 594, 590, 578, 570, 562, 554, 535, 524, 512, 499, 471, 456, 444, 434, 412, 403, 395, 390, 378, 373, 367, 363, 357, 354, 350, 348, 343, 340, 338, 335, 330, 328, 326, 323, 319, 318, 316, 314, 310, 306, 303, 303, 298, 296, 292, 289, 284, 280, 277, 273, 267, 265, 263, 261, 257, 256, 255, 254, 254, 254, 254, 254, 254, 254, 254]","[1010, 1010, 1010, 1010, 1010, 1010, 1010, 1010, 1010, 1010, 1010, 1010, 1010, 1010, 1010, 1010, 1010, 1008, 1002, 990, 982, 973, 964, 947, 931, 918, 904, 875, 856, 836, 812, 775, 756, 735, 716, 689, 678, 668, 660, 644, 637, 631, 625, 616, 610, 603, 597, 582, 575, 568, 563, 543, 534, 525, 517, 496, 484, 471, 458, 431, 421, 409, 399, 377, 368, 358, 350, 333, 326, 318, 311, 299, 295, 287, 283, 271, 266, 261, 255, 243, 238, 232, 226, 218, 214, 212, 209, 201, 197, 192, 188, 179, 175, 170, 162, 153, 146, 142, 133, 124, 118, 114, 111, 104, 102, 100, 98, 98, 98, 98, 98, 98, 98, 98]"
"Trust","Teilnehmer A hat Ihnen 2 Punkte übermittelt.","Payback","0","undefined","21","0","7","60","1080","191","10","2","694","0","legacy","[11, 21, 31, 41, 51, 61, 71, 81, 91, 101, 111, 121, 131, 141, 151, 161, 171, 181, 191, 201, 211, 221, 231, 241, 251, 261, 271, 281, 291, 301, 311, 321, 331, 341, 351, 361, 371, 381, 391, 401, 411, 421, 431, 441, 451, 461, 471, 481, 491, 501, 511, 521, 531, 541, 551, 561, 571, 581, 591, 601, 611, 621, 631, 641, 651, 661, 671, 681, 691]","1095","1920","[960, 960, 960, 960, 960, 960, 960, 960, 960, 960, 960, 960, 959, 956, 948, 942, 933, 921, 874, 843, 807, 770, 715, 684, 648, 620, 566, 545, 525, 505, 470, 457, 443, 430, 412, 401, 391, 379, 359, 350, 343, 337, 325, 319, 315, 311, 304, 300, 297, 295, 290, 288, 287, 285, 284, 283, 283, 282, 281, 281, 280, 280, 280, 280, 280, 280, 280, 280, 280]","[1010, 1010, 1010, 1010, 1010, 1010, 1010, 1010, 1010, 1010, 1010, 1008, 1006, 1002, 987, 978, 968, 955, 915, 892, 869, 842, 792, 755, 715, 676, 600, 572, 542, 511, 451, 424, 398, 371, 329, 306, 284, 265, 228, 214, 202, 190, 168, 160, 153, 146, 134, 130, 125, 123, 118, 116, 115, 114, 113, 113, 113, 112, 112, 112, 112, 112, 112, 112, 112, 112, 112, 112, 112]"
"Trust","Teilnehmer A hat Ihnen 2 Punkte übermittelt.","Payback","1","undefined","22","0","7","60","1080","171","5","1","702","0","legacy","[11, 21, 31, 41, 51, 61, 71, 81, 91, 101, 111, 121, 131, 141, 151, 161, 171, 181, 191, 201, 211, 221, 231, 241, 251, 261, 271, 281, 291, 301, 311, 321, 331, 341, 351, 361, 371, 381, 391, 401, 411, 421, 431, 441, 451, 461, 471, 481, 491, 501, 511, 521, 531, 541, 551, 561, 571, 581, 591, 601, 611, 621, 631, 641, 651, 661, 671, 681, 691, 701]","1095","1920","[960, 960, 960, 960, 960, 960, 960, 960, 960, 960, 960, 960, 960, 966, 983, 998, 1020, 1040, 1104, 1138, 1191, 1234, 1340, 1393, 1448, 1496, 1583, 1620, 1657, 1688, 1738, 1756, 1772, 1783, 1799, 1805, 1810, 1813, 1816, 1816, 1818, 1818, 1818, 1818, 1818, 1818, 1818, 1818, 1818, 1818, 1818, 1817, 1816, 1813, 1808, 1806, 1805, 1803, 1802, 1801, 1801, 1800, 1800, 1800, 1800, 1800, 1800, 1800, 1800, 1800]","[1010, 1010, 1010, 1010, 1010, 1010, 1010, 1010, 1010, 1010, 1010, 1010, 1006, 999, 979, 963, 939, 915, 857, 826, 786, 752, 671, 631, 592, 557, 486, 457, 428, 404, 361, 343, 327, 312, 292, 282, 274, 266, 253, 249, 241, 237, 229, 227, 222, 218, 210, 206, 199, 192, 173, 164, 153, 142, 124, 114, 107, 101, 90, 85, 83, 80, 79, 78, 78, 78, 78, 78, 78, 78]"
"Trust","Teilnehmer A hat Ihnen 2 Punkte übermittelt.","Payback","1","undefined","23","0","7","60","1080","191","5","1","902","0","legacy","[11, 21, 31, 41, 51, 61, 71, 81, 91, 101, 111, 121, 131, 141, 151, 161, 171, 181, 191, 201, 211, 221, 231, 241, 251, 261, 271, 281, 291, 301, 311, 321, 331, 341, 351, 361, 371, 381, 391, 401, 411, 421, 431, 441, 451, 461, 471, 481, 491, 501, 511, 521, 531, 541, 551, 561, 571, 581, 591, 601, 611, 621, 631, 641, 651, 661, 671, 681, 691, 701, 711, 721, 731, 741, 751, 761, 771, 781, 791, 801, 811, 821, 831, 841, 851, 861, 871, 881, 891, 901]","1095","1920","[960, 960, 960, 960, 960, 960, 960, 960, 960, 960, 960, 960, 960, 960, 966, 972, 977, 985, 1000, 1011, 1024, 1036, 1062, 1075, 1088, 1099, 1128, 1141, 1150, 1164, 1193, 1207, 1220, 1232, 1256, 1270, 1284, 1297, 1324, 1342, 1357, 1369, 1400, 1417, 1430, 1442, 1466, 1476, 1486, 1495, 1509, 1517, 1523, 1529, 1546, 1552, 1560, 1568, 1584, 1590, 1597, 1602, 1616, 1625, 1631, 1639, 1650, 1654, 1658, 1662, 1667, 1670, 1672, 1673, 1676, 1678, 1680, 1681, 1684, 1685, 1686, 1686, 1686, 1686, 1686, 1686, 1686, 1686, 1686, 1686]","[1009, 1009, 1009, 1009, 1007, 1007, 1007, 1007, 1007, 1007, 1006, 1004, 1002, 998, 985, 977, 969, 958, 937, 923, 905, 889, 854, 834, 817, 800, 763, 745, 732, 716, 681, 661, 644, 629, 595, 579, 560, 542, 507, 487, 469, 454, 422, 404, 391, 378, 357, 345, 335, 327, 311, 303, 296, 291, 275, 269, 263, 255, 242, 236, 230, 225, 211, 202, 196, 191, 180, 175, 170, 165, 157, 152, 150, 146, 140, 138, 134, 132, 127, 127, 125, 124, 124, 124, 124, 124, 124, 124, 124, 124]"
CHF,TotCHF,final_payoff,sum
"7.5","27.5","[5, 5, 5, 0]","15"
