Condition,PromiseStage,Stage,accuracy,avg_rt,count_decision_sequence,count_loop1,count_trial_sequence,font_size,height,init_time,payoff,response,rt,subject_nr,synth_backend,tTrajectory,time_experiment,width,xTrajectory,yTrajectory
"Promise","Wie oft werden Sie die Hälfte zurückgeben?","Promise","0","undefined","NA","0","0","60","1080","261","NA","2","1935","0","legacy","[11, 21, 31, 41, 51, 61, 71, 81, 91, 101, 111, 121, 131, 141, 151, 161, 171, 181, 191, 201, 211, 221, 231, 241, 251, 261, 271, 281, 291, 301, 311, 321, 331, 341, 351, 361, 371, 381, 391, 401, 411, 421, 431, 441, 451, 461, 471, 481, 491, 501, 511, 521, 531, 541, 551, 561, 571, 581, 591, 601, 611, 621, 631, 641, 651, 661, 671, 681, 691, 701, 711, 721, 731, 741, 751, 761, 771, 781, 791, 801, 811, 821, 831, 841, 851, 861, 871, 881, 891, 901, 911, 921, 931, 941, 951, 961, 971, 981, 991, 1001, 1011, 1021, 1031, 1041, 1051, 1061, 1071, 1081, 1091, 1101, 1111, 1121, 1131, 1141, 1151, 1161, 1171, 1181, 1191, 1201, 1211, 1221, 1231, 1241, 1251, 1261, 1271, 1281, 1291, 1301, 1311, 1321, 1331, 1341, 1351, 1361, 1371, 1381, 1391, 1401, 1411, 1421, 1431, 1441, 1451, 1461, 1471, 1481, 1491, 1501, 1511, 1521, 1531, 1541, 1551, 1561, 1571, 1581, 1591, 1601, 1611, 1621, 1631, 1641, 1651, 1661, 1671, 1681, 1691, 1701, 1711, 1721, 1731, 1741, 1751, 1761, 1771, 1781, 1791, 1801, 1811, 1821, 1831, 1841, 1851, 1861, 1871, 1881, 1891, 1901, 1911, 1921, 1931]","1268","1920","[960, 960, 960, 960, 960, 960, 960, 960, 960, 960, 960, 960, 960, 960, 960, 960, 960, 960, 960, 959, 959, 957, 955, 949, 939, 922, 907, 861, 838, 812, 778, 680, 626, 577, 531, 475, 465, 457, 450, 437, 429, 421, 411, 395, 391, 386, 382, 380, 379, 378, 376, 375, 375, 375, 375, 375, 375, 374, 372, 372, 371, 371, 370, 368, 367, 366, 366, 364, 364, 364, 364, 361, 359, 358, 357, 355, 354, 351, 351, 348, 348, 347, 345, 343, 340, 338, 334, 327, 325, 322, 319, 315, 314, 312, 312, 311, 309, 309, 309, 309, 308, 308, 308, 308, 308, 308, 308, 308, 308, 308, 308, 308, 308, 308, 308, 308, 308, 308, 308, 308, 308, 308, 308, 308, 308, 308, 308, 308, 308, 308, 308, 308, 308, 308, 308, 308, 308, 308, 308, 308, 308, 308, 308, 308, 308, 308, 308, 308, 308, 308, 308, 308, 308, 308, 308, 305, 301, 296, 293, 287, 283, 276, 272, 262, 256, 252, 244, 228, 217, 207, 198, 179, 172, 165, 160, 157, 155, 155, 155, 155, 155, 155, 155, 155, 155, 155, 155, 155, 155, 155, 155, 155, 155]","[1010, 1010, 1010, 1010, 1010, 1010, 1010, 1010, 1010, 1010, 1010, 1010, 1010, 1010, 1010, 1010, 1010, 1010, 1010, 1010, 1008, 1003, 997, 971, 943, 908, 863, 758, 697, 624, 548, 391, 319, 247, 191, 115, 101, 91, 85, 75, 72, 67, 64, 62, 62, 62, 62, 62, 62, 62, 62, 62, 62, 62, 62, 62, 62, 62, 68, 76, 82, 89, 93, 99, 102, 103, 103, 106, 106, 106, 106, 107, 107, 107, 107, 107, 107, 107, 107, 107, 107, 107, 107, 107, 107, 107, 107, 107, 107, 107, 107, 107, 107, 107, 107, 107, 107, 107, 107, 107, 107, 107, 107, 107, 107, 107, 107, 107, 107, 107, 107, 107, 107, 107, 107, 107, 107, 107, 107, 107, 107, 107, 107, 107, 107, 107, 107, 107, 107, 107, 107, 107, 107, 107, 107, 107, 107, 107, 107, 107, 107, 107, 107, 107, 107, 107, 107, 107, 107, 107, 107, 107, 107, 107, 106, 105, 102, 102, 102, 102, 102, 102, 102, 102, 102, 102, 102, 102, 102, 102, 102, 99, 96, 95, 92, 91, 91, 91, 91, 90, 90, 90, 90, 90, 90, 90, 90, 90, 90, 90, 90, 90, 90]"
Cond,DecisionB,Stage,accuracy,avg_rt,count_decision_sequence,count_loop1,count_trial_sequence,font_size,height,init_time,payoff,response,rt,subject_nr,synth_backend,tTrajectory,time_experiment,width,xTrajectory,yTrajectory
"Trust","Teilnehmer A hat Ihnen 2 Punkte übermittelt.","Payback","0","undefined","0","0","0","60","1080","1911","10","2","4637","0","legacy","[11, 21, 31, 41, 51, 61, 71, 81, 91, 101, 111, 121, 131, 141, 151, 161, 171, 181, 191, 201, 211, 221, 231, 241, 251, 261, 271, 281, 291, 301, 311, 321, 331, 341, 351, 361, 371, 381, 391, 401, 411, 421, 431, 441, 451, 461, 471, 481, 491, 501, 511, 521, 531, 541, 551, 561, 571, 581, 591, 601, 611, 621, 631, 641, 651, 661, 671, 681, 691, 701, 711, 721, 731, 741, 751, 761, 771, 781, 791, 801, 811, 821, 831, 841, 851, 861, 871, 881, 891, 901, 911, 921, 931, 941, 951, 961, 971, 981, 991, 1001, 1011, 1021, 1031, 1041, 1051, 1061, 1071, 1081, 1091, 1101, 1111, 1121, 1131, 1141, 1151, 1161, 1171, 1181, 1191, 1201, 1211, 1221, 1231, 1241, 1251, 1261, 1271, 1281, 1291, 1301, 1311, 1321, 1331, 1341, 1351, 1361, 1371, 1381, 1391, 1401, 1411, 1421, 1431, 1441, 1451, 1461, 1471, 1481, 1491, 1501, 1511, 1521, 1531, 1541, 1551, 1561, 1571, 1581, 1591, 1601, 1611, 1621, 1631, 1641, 1651, 1661, 1671, 1681, 1691, 1701, 1711, 1721, 1731, 1741, 1751, 1761, 1771, 1781, 1791, 1801, 1811, 1821, 1831, 1841, 1851, 1861, 1871, 1881, 1891, 1901, 1911, 1921, 1931, 1941, 1951, 1961, 1971, 1981, 1991, 2001, 2011, 2021, 2031, 2041, 2051, 2061, 2071, 2081, 2091, 2101, 2111, 2121, 2131, 2141, 2151, 2161, 2171, 2181, 2191, 2201, 2211, 2221, 2231, 2241, 2251, 2261, 2271, 2281, 2291, 2301, 2311, 2321, 2331, 2341, 2351, 2361, 2371, 2381, 2391, 2401, 2411, 2421, 2431, 2441, 2451, 2461, 2471, 2481, 2491, 2501, 2511, 2521, 2531, 2541, 2551, 2561, 2571, 2581, 2591, 2601, 2611, 2621, 2631, 2641, 2651, 2661, 2671, 2681, 2691, 2701, 2711, 2721, 2731, 2741, 2751, 2761, 2771, 2781, 2791, 2801, 2811, 2821, 2831, 2841, 2851, 2861, 2871, 2881, 2891, 2901, 2911, 2921, 2931, 2941, 2951, 2961, 2971, 2981, 2991, 3001, 3011, 3021, 3031, 3041, 3051, 3061, 3071, 3081, 3091, 3101, 3111, 3121, 3131, 3141, 3151, 3161, 3171, 3181, 3191, 3201, 3211, 3221, 3231, 3241, 3251, 3261, 3271, 3281, 3291, 3301, 3311, 3321, 3331, 3341, 3351, 3361, 3371, 3381, 3391, 3401, 3411, 3421, 3431, 3441, 3451, 3461, 3471, 3481, 3491, 3501, 3511, 3521, 3531, 3541, 3551, 3561, 3571, 3581, 3591, 3601, 3611, 3621, 3631, 3641, 3651, 3661, 3671, 3681, 3691, 3701, 3711, 3721, 3731, 3741, 3751, 3761, 3771, 3781, 3791, 3801, 3811, 3821, 3831, 3841, 3851, 3861, 3871, 3881, 3891, 3901, 3911, 3921, 3931, 3941, 3951, 3961, 3971, 3981, 3991, 4001, 4011, 4021, 4031, 4041, 4051, 4061, 4071, 4081, 4091, 4101, 4111, 4121, 4131, 4141, 4151, 4161, 4171, 4181, 4191, 4201, 4211, 4221, 4231, 4241, 4251, 4261, 4271, 4281, 4291, 4301, 4311, 4321, 4331, 4341, 4351, 4361, 4371, 4381, 4391, 4401, 4411, 4421, 4431, 4441, 4451, 4461, 4471, 4481, 4491, 4501, 4511, 4521, 4531, 4541, 4551, 4561, 4571, 4581, 4591, 4601, 4611, 4621, 4631]","1268","1920","[960, 960, 960, 960, 960, 960, 960, 960, 960, 960, 960, 960, 960, 960, 960, 960, 960, 960, 960, 960, 960, 960, 960, 960, 960, 960, 960, 960, 960, 960, 960, 960, 960, 960, 960, 960, 960, 960, 960, 960, 960, 960, 960, 960, 960, 960, 960, 960, 960, 960, 960, 960, 960, 960, 960, 960, 960, 960, 960, 960, 960, 960, 960, 960, 960, 960, 960, 960, 960, 960, 960, 960, 960, 960, 960, 960, 960, 960, 960, 960, 960, 960, 960, 960, 960, 960, 960, 960, 960, 960, 960, 960, 960, 960, 960, 960, 960, 960, 960, 960, 960, 960, 960, 960, 960, 960, 960, 960, 960, 960, 960, 960, 960, 960, 960, 960, 960, 960, 960, 960, 960, 960, 960, 960, 960, 960, 960, 960, 960, 960, 960, 960, 960, 960, 960, 960, 960, 960, 960, 960, 960, 960, 960, 960, 960, 960, 960, 960, 960, 960, 960, 960, 960, 960, 960, 960, 960, 960, 960, 960, 960, 960, 960, 960, 960, 960, 960, 960, 960, 960, 960, 960, 960, 960, 960, 960, 961, 961, 961, 961, 963, 963, 964, 965, 967, 969, 972, 973, 976, 980, 988, 997, 1008, 1021, 1054, 1071, 1090, 1109, 1139, 1155, 1171, 1193, 1237, 1260, 1285, 1310, 1363, 1389, 1413, 1439, 1478, 1500, 1513, 1532, 1570, 1590, 1600, 1610, 1627, 1638, 1649, 1656, 1671, 1679, 1686, 1695, 1709, 1713, 1719, 1723, 1727, 1730, 1731, 1732, 1733, 1734, 1734, 1734, 1734, 1734, 1734, 1734, 1734, 1734, 1734, 1734, 1734, 1734, 1734, 1734, 1734, 1734, 1734, 1734, 1734, 1734, 1734, 1734, 1734, 1734, 1734, 1734, 1734, 1734, 1734, 1734, 1734, 1734, 1734, 1734, 1734, 1734, 1734, 1734, 1734, 1734, 1734, 1734, 1734, 1734, 1734, 1734, 1734, 1734, 1734, 1734, 1734, 1734, 1734, 1734, 1734, 1734, 1734, 1734, 1734, 1734, 1734, 1734, 1734, 1734, 1734, 1734, 1734, 1734, 1734, 1734, 1734, 1734, 1734, 1734, 1734, 1734, 1734, 1734, 1734, 1734, 1734, 1736, 1738, 1738, 1739, 1741, 1745, 1748, 1751, 1751, 1755, 1755, 1756, 1756, 1757, 1758, 1758, 1758, 1758, 1758, 1758, 1758, 1758, 1758, 1758, 1758, 1758, 1758, 1758, 1758, 1758, 1758, 1758, 1758, 1758, 1758, 1758, 1758, 1758, 1758, 1758, 1758, 1758, 1758, 1758, 1758, 1758, 1758, 1758, 1758, 1758, 1758, 1758, 1758, 1758, 1758, 1758, 1758, 1758, 1758, 1758, 1758, 1758, 1758, 1758, 1758, 1758, 1758, 1758, 1758, 1758, 1758, 1758, 1758, 1758, 1758, 1758, 1756, 1741, 1724, 1694, 1630, 1461, 1362, 1243, 1119, 873, 757, 641, 547, 370, 298, 241, 200, 164, 155, 150, 143, 128, 121, 116, 110, 94, 86, 76, 64, 31, 8, 0, 0, 0, 0, 0, 0, 0, 4, 16, 31, 78, 101, 119, 132, 152, 160, 166, 171, 175, 178, 179, 180, 180, 180, 180, 180, 180, 180, 180, 180, 180, 180, 180, 180, 180, 180, 180, 180, 180]","[1010, 1010, 1010, 1010, 1010, 1010, 1010, 1010, 1010, 1010, 1010, 1010, 1010, 1010, 1010, 1010, 1010, 1010, 1010, 1010, 1010, 1010, 1010, 1010, 1010, 1010, 1010, 1010, 1010, 1010, 1010, 1010, 1010, 1010, 1010, 1010, 1010, 1010, 1010, 1010, 1010, 1010, 1010, 1010, 1010, 1010, 1010, 1010, 1010, 1010, 1010, 1010, 1010, 1010, 1010, 1010, 1010, 1010, 1010, 1010, 1010, 1010, 1010, 1010, 1010, 1010, 1010, 1010, 1010, 1010, 1010, 1010, 1010, 1010, 1010, 1010, 1010, 1010, 1010, 1010, 1010, 1010, 1010, 1010, 1010, 1010, 1010, 1010, 1010, 1010, 1010, 1010, 1010, 1010, 1010, 1010, 1010, 1010, 1010, 1010, 1010, 1010, 1010, 1010, 1010, 1010, 1010, 1010, 1010, 1010, 1010, 1010, 1010, 1010, 1010, 1010, 1010, 1010, 1010, 1010, 1010, 1010, 1010, 1010, 1010, 1010, 1010, 1010, 1010, 1010, 1010, 1010, 1010, 1010, 1010, 1010, 1010, 1010, 1010, 1010, 1010, 1010, 1010, 1010, 1010, 1010, 1010, 1010, 1010, 1010, 1009, 1009, 1009, 1009, 1009, 1009, 1009, 1009, 1009, 1009, 1008, 1007, 1006, 1006, 1006, 1006, 1005, 1005, 1004, 1004, 1004, 1003, 1002, 1001, 997, 997, 995, 994, 991, 990, 986, 984, 980, 979, 976, 971, 967, 965, 961, 952, 928, 907, 883, 857, 799, 772, 746, 719, 676, 656, 634, 610, 555, 527, 500, 474, 422, 397, 377, 355, 320, 304, 291, 275, 244, 229, 220, 209, 190, 178, 163, 153, 134, 125, 118, 107, 93, 88, 82, 78, 73, 70, 68, 67, 66, 66, 66, 66, 66, 66, 66, 66, 66, 66, 66, 66, 66, 66, 66, 66, 66, 66, 66, 66, 66, 66, 66, 66, 66, 66, 66, 66, 66, 66, 66, 66, 66, 66, 66, 66, 66, 66, 66, 66, 66, 66, 66, 66, 66, 66, 66, 66, 66, 66, 66, 66, 66, 66, 66, 66, 66, 66, 66, 66, 66, 66, 66, 66, 66, 66, 66, 66, 66, 66, 66, 66, 66, 66, 66, 66, 66, 66, 66, 66, 66, 66, 65, 65, 67, 67, 69, 70, 72, 72, 72, 73, 73, 73, 73, 73, 73, 73, 73, 73, 73, 73, 73, 73, 73, 73, 73, 73, 73, 73, 73, 73, 73, 73, 73, 73, 73, 73, 73, 73, 73, 73, 73, 73, 73, 73, 73, 73, 73, 73, 73, 73, 73, 73, 73, 73, 73, 73, 73, 73, 73, 73, 73, 73, 73, 73, 73, 73, 73, 73, 73, 73, 73, 73, 73, 73, 73, 73, 73, 73, 73, 73, 73, 73, 73, 73, 73, 73, 73, 73, 76, 76, 76, 83, 91, 98, 106, 109, 111, 114, 121, 124, 126, 131, 138, 140, 141, 142, 146, 147, 150, 156, 167, 172, 176, 177, 177, 178, 178, 172, 151, 142, 134, 129, 119, 114, 111, 106, 99, 91, 89, 86, 80, 78, 74, 71, 66, 65, 65, 65, 65, 65, 65, 65, 65, 65, 65, 65, 65]"
"Trust","Teilnehmer A hat Ihnen 2 Punkte übermittelt.","Payback","1","undefined","1","0","0","60","1080","211","5","1","956","0","legacy","[11, 21, 31, 41, 51, 61, 71, 81, 91, 101, 111, 121, 131, 141, 151, 161, 171, 181, 191, 201, 211, 221, 231, 241, 251, 261, 271, 281, 291, 301, 311, 321, 331, 341, 351, 361, 371, 381, 391, 401, 411, 421, 431, 441, 451, 461, 471, 481, 491, 501, 511, 521, 531, 541, 551, 561, 571, 581, 591, 601, 611, 621, 631, 641, 651, 661, 671, 681, 691, 701, 711, 721, 731, 741, 751, 761, 771, 781, 791, 801, 811, 821, 831, 841, 851, 861, 871, 881, 891, 901, 911, 921, 931, 941, 951]","1268","1920","[960, 960, 960, 960, 960, 960, 960, 960, 960, 960, 960, 960, 960, 960, 960, 960, 963, 973, 977, 989, 1011, 1088, 1139, 1200, 1272, 1411, 1475, 1529, 1580, 1676, 1716, 1754, 1788, 1842, 1864, 1881, 1894, 1906, 1909, 1909, 1909, 1909, 1908, 1906, 1903, 1897, 1895, 1894, 1890, 1886, 1883, 1879, 1876, 1866, 1860, 1854, 1845, 1830, 1823, 1820, 1813, 1809, 1808, 1808, 1808, 1808, 1808, 1808, 1808, 1808, 1808, 1808, 1808, 1808, 1808, 1806, 1806, 1804, 1803, 1802, 1801, 1796, 1792, 1790, 1789, 1787, 1787, 1787, 1786, 1785, 1785, 1785, 1785, 1785, 1785]","[1010, 1010, 1010, 1010, 1010, 1010, 1010, 1010, 1010, 1010, 1010, 1010, 1010, 1010, 1010, 1010, 1007, 989, 979, 960, 929, 833, 769, 699, 620, 486, 430, 383, 340, 259, 225, 189, 159, 105, 81, 56, 36, 2, 0, 0, 0, 0, 0, 0, 0, 0, 0, 0, 0, 0, 0, 0, 0, 3, 7, 11, 18, 28, 34, 37, 42, 46, 47, 47, 47, 47, 47, 47, 47, 47, 47, 47, 47, 47, 48, 49, 49, 52, 53, 55, 56, 61, 64, 65, 67, 69, 69, 69, 69, 70, 70, 70, 70, 70, 70]"
"NoTrust","Teilnehmer A hat Ihnen keine 2 Punkte übermittelt.","Payback","1","undefined","2","0","0","60","1080","211","0","1","956","0","legacy","[11, 21, 31, 41, 51, 61, 71, 81, 91, 101, 111, 121, 131, 141, 151, 161, 171, 181, 191, 201, 211, 221, 231, 241, 251, 261, 271, 281, 291, 301, 311, 321, 331, 341, 351, 361, 371, 381, 391, 401, 411, 421, 431, 441, 451, 461, 471, 481, 491, 501, 511, 521, 531, 541, 551, 561, 571, 581, 591, 601, 611, 621, 631, 641, 651, 661, 671, 681, 691, 701, 711, 721, 731, 741, 751, 761, 771, 781, 791, 801, 811, 821, 831, 841, 851, 861, 871, 881, 891, 901, 911, 921, 931, 941, 951]","1268","1920","[960, 960, 960, 960, 960, 960, 960, 960, 960, 960, 960, 960, 960, 960, 960, 960, 963, 973, 977, 989, 1011, 1088, 1139, 1200, 1272, 1411, 1475, 1529, 1580, 1676, 1716, 1754, 1788, 1842, 1864, 1881, 1894, 1906, 1909, 1909, 1909, 1909, 1908, 1906, 1903, 1897, 1895, 1894, 1890, 1886, 1883, 1879, 1876, 1866, 1860, 1854, 1845, 1830, 1823, 1820, 1813, 1809, 1808, 1808, 1808, 1808, 1808, 1808, 1808, 1808, 1808, 1808, 1808, 1808, 1808, 1806, 1806, 1804, 1803, 1802, 1801, 1796, 1792, 1790, 1789, 1787, 1787, 1787, 1786, 1785, 1785, 1785, 1785, 1785, 1785]","[1010, 1010, 1010, 1010, 1010, 1010, 1010, 1010, 1010, 1010, 1010, 1010, 1010, 1010, 1010, 1010, 1007, 989, 979, 960, 929, 833, 769, 699, 620, 486, 430, 383, 340, 259, 225, 189, 159, 105, 81, 56, 36, 2, 0, 0, 0, 0, 0, 0, 0, 0, 0, 0, 0, 0, 0, 0, 0, 3, 7, 11, 18, 28, 34, 37, 42, 46, 47, 47, 47, 47, 47, 47, 47, 47, 47, 47, 47, 47, 48, 49, 49, 52, 53, 55, 56, 61, 64, 65, 67, 69, 69, 69, 69, 70, 70, 70, 70, 70, 70]"
"Promise","Wie oft werden Sie die Hälfte zurückgeben?","Promise","0","undefined","2","0","1","60","1080","261","0","2","1976","0","legacy","[11, 21, 31, 41, 51, 61, 71, 81, 91, 101, 111, 121, 131, 141, 151, 161, 171, 181, 191, 201, 211, 221, 231, 241, 251, 261, 271, 281, 291, 301, 311, 321, 331, 341, 351, 361, 371, 381, 391, 401, 411, 421, 431, 441, 451, 461, 471, 481, 491, 501, 511, 521, 531, 541, 551, 561, 571, 581, 591, 601, 611, 621, 631, 641, 651, 661, 671, 681, 691, 701, 711, 721, 731, 741, 751, 761, 771, 781, 791, 801, 811, 821, 831, 841, 851, 861, 871, 881, 891, 901, 911, 921, 931, 941, 951, 961, 971, 981, 991, 1001, 1011, 1021, 1031, 1041, 1051, 1061, 1071, 1081, 1091, 1101, 1111, 1121, 1131, 1141, 1151, 1161, 1171, 1181, 1191, 1201, 1211, 1221, 1231, 1241, 1251, 1261, 1271, 1281, 1291, 1301, 1311, 1321, 1331, 1341, 1351, 1361, 1371, 1381, 1391, 1401, 1411, 1421, 1431, 1441, 1451, 1461, 1471, 1481, 1491, 1501, 1511, 1521, 1531, 1541, 1551, 1561, 1571, 1581, 1591, 1601, 1611, 1621, 1631, 1641, 1651, 1661, 1671, 1681, 1691, 1701, 1711, 1721, 1731, 1741, 1751, 1761, 1771, 1781, 1791, 1801, 1811, 1821, 1831, 1841, 1851, 1861, 1871, 1881, 1891, 1901, 1911, 1921, 1931, 1941, 1951, 1961, 1971]","1268","1920","[960, 960, 960, 960, 960, 960, 960, 960, 960, 960, 960, 960, 960, 960, 960, 960, 960, 960, 960, 960, 960, 959, 957, 947, 940, 922, 896, 832, 791, 754, 703, 607, 554, 499, 453, 376, 352, 327, 313, 292, 286, 281, 276, 272, 271, 269, 269, 269, 267, 267, 266, 266, 265, 263, 261, 256, 253, 248, 244, 239, 238, 237, 237, 237, 237, 237, 237, 236, 236, 236, 236, 235, 235, 235, 235, 235, 236, 236, 237, 240, 240, 241, 241, 241, 241, 241, 241, 241, 241, 241, 241, 241, 241, 241, 241, 241, 241, 241, 241, 241, 241, 241, 241, 241, 241, 241, 241, 241, 241, 241, 241, 241, 241, 241, 241, 241, 241, 241, 241, 241, 241, 241, 241, 241, 241, 241, 241, 241, 241, 241, 241, 241, 241, 241, 241, 241, 241, 241, 241, 241, 241, 241, 241, 241, 241, 241, 241, 241, 241, 241, 241, 241, 241, 241, 241, 241, 241, 241, 241, 241, 241, 241, 241, 241, 241, 241, 241, 241, 241, 241, 241, 241, 241, 241, 241, 241, 241, 241, 241, 241, 241, 241, 241, 241, 241, 241, 241, 241, 241, 241, 241, 241, 241, 241, 241, 241, 241]","[1010, 1010, 1010, 1010, 1010, 1010, 1010, 1010, 1010, 1010, 1010, 1010, 1010, 1010, 1010, 1010, 1010, 1010, 1010, 1010, 1010, 1008, 1002, 978, 961, 926, 884, 785, 732, 684, 623, 502, 419, 339, 247, 86, 37, 4, 0, 0, 0, 0, 0, 0, 0, 0, 0, 0, 0, 0, 1, 1, 3, 4, 6, 6, 8, 8, 8, 8, 8, 8, 8, 8, 8, 8, 8, 9, 9, 12, 15, 24, 29, 33, 39, 45, 48, 50, 53, 59, 60, 61, 62, 63, 64, 64, 64, 64, 64, 64, 64, 64, 64, 64, 64, 64, 64, 64, 64, 64, 64, 64, 64, 64, 64, 64, 64, 64, 64, 64, 64, 64, 64, 64, 64, 64, 64, 64, 64, 64, 64, 64, 64, 64, 64, 64, 64, 64, 64, 64, 64, 64, 64, 64, 64, 64, 64, 64, 64, 64, 64, 64, 64, 64, 64, 64, 64, 64, 64, 64, 64, 64, 64, 64, 64, 64, 64, 64, 64, 64, 64, 64, 64, 64, 64, 64, 64, 64, 64, 64, 64, 64, 64, 64, 64, 64, 64, 64, 64, 64, 64, 64, 64, 64, 64, 64, 64, 64, 64, 64, 64, 64, 64, 64, 64, 64, 64]"
"Trust","Teilnehmer A hat Ihnen 2 Punkte übermittelt.","Payback","0","undefined","3","0","1","60","1080","311","10","2","1230","0","legacy","[11, 21, 31, 41, 51, 61, 71, 81, 91, 101, 111, 121, 131, 141, 151, 161, 171, 181, 191, 201, 211, 221, 231, 241, 251, 261, 271, 281, 291, 301, 311, 321, 331, 341, 351, 361, 371, 381, 391, 401, 411, 421, 431, 441, 451, 461, 471, 481, 491, 501, 511, 521, 531, 541, 551, 561, 571, 581, 591, 601, 611, 621, 631, 641, 651, 661, 671, 681, 691, 701, 711, 721, 731, 741, 751, 761, 771, 781, 791, 801, 811, 821, 831, 841, 851, 861, 871, 881, 891, 901, 911, 921, 931, 941, 951, 961, 971, 981, 991, 1001, 1011, 1021, 1031, 1041, 1051, 1061, 1071, 1081, 1091, 1101, 1111, 1121, 1131, 1141, 1151, 1161, 1171, 1181, 1191, 1201, 1211, 1221]","1268","1920","[960, 960, 960, 960, 960, 960, 960, 960, 960, 960, 960, 960, 960, 960, 960, 960, 960, 960, 960, 960, 960, 960, 960, 960, 960, 960, 960, 960, 955, 950, 932, 921, 909, 893, 861, 843, 821, 799, 755, 731, 711, 697, 660, 641, 623, 606, 564, 545, 528, 514, 489, 482, 478, 477, 476, 476, 476, 476, 476, 476, 476, 476, 476, 476, 476, 476, 476, 476, 476, 476, 476, 476, 476, 476, 476, 476, 476, 476, 476, 476, 476, 476, 476, 476, 476, 476, 476, 474, 464, 456, 440, 432, 422, 409, 382, 370, 359, 348, 332, 327, 320, 311, 293, 284, 275, 268, 258, 252, 248, 244, 236, 234, 230, 230, 230, 230, 230, 230, 230, 230, 230, 230]","[1010, 1010, 1010, 1010, 1010, 1010, 1010, 1010, 1010, 1009, 1008, 1008, 1007, 1007, 1005, 1004, 1003, 1003, 1002, 1000, 1000, 997, 994, 990, 987, 982, 972, 964, 954, 943, 916, 899, 884, 861, 816, 793, 765, 741, 687, 656, 623, 598, 533, 490, 439, 384, 259, 198, 142, 92, 37, 27, 20, 17, 16, 15, 15, 15, 15, 15, 15, 15, 15, 15, 15, 15, 15, 15, 15, 15, 15, 15, 15, 15, 15, 15, 15, 15, 15, 15, 15, 15, 15, 15, 15, 15, 15, 15, 16, 18, 19, 20, 20, 20, 20, 20, 22, 23, 28, 29, 33, 38, 45, 49, 52, 56, 61, 65, 67, 69, 74, 75, 77, 78, 78, 78, 78, 78, 78, 78, 78, 78]"
"Trust","Teilnehmer A hat Ihnen 2 Punkte übermittelt.","Payback","0","undefined","4","0","1","60","1080","241","10","2","901","0","legacy","[11, 21, 31, 41, 51, 61, 71, 81, 91, 101, 111, 121, 131, 141, 151, 161, 171, 181, 191, 201, 211, 221, 231, 241, 251, 261, 271, 281, 291, 301, 311, 321, 331, 341, 351, 361, 371, 381, 391, 401, 411, 421, 431, 441, 451, 461, 471, 481, 491, 501, 511, 521, 531, 541, 551, 561, 571, 581, 591, 601, 611, 621, 631, 641, 651, 661, 671, 681, 691, 701, 711, 721, 731, 741, 751, 761, 771, 781, 791, 801, 811, 821, 831, 841, 851, 861, 871, 881, 891, 901]","1268","1920","[960, 960, 960, 960, 960, 960, 960, 960, 960, 960, 960, 960, 960, 960, 956, 953, 952, 949, 943, 938, 933, 923, 896, 872, 847, 818, 766, 745, 714, 689, 637, 608, 583, 557, 526, 514, 504, 492, 470, 460, 445, 435, 413, 404, 393, 385, 366, 358, 349, 344, 329, 323, 319, 314, 310, 308, 305, 299, 287, 278, 269, 264, 252, 247, 243, 237, 225, 219, 214, 211, 209, 207, 207, 207, 205, 205, 203, 201, 198, 198, 197, 197, 197, 197, 197, 197, 196, 196, 196, 196]","[1010, 1010, 1010, 1010, 1010, 1010, 1010, 1010, 1010, 1010, 1009, 1009, 1008, 1007, 1005, 1003, 1002, 1000, 996, 991, 984, 971, 944, 924, 905, 880, 837, 817, 796, 777, 736, 710, 692, 669, 635, 616, 597, 571, 531, 512, 487, 469, 424, 407, 393, 381, 358, 347, 336, 327, 306, 298, 289, 281, 272, 270, 264, 257, 246, 239, 232, 227, 217, 212, 205, 201, 190, 182, 176, 171, 164, 158, 153, 149, 140, 136, 131, 127, 118, 115, 111, 110, 104, 102, 100, 100, 98, 98, 98, 98]"
"Trust","Teilnehmer A hat Ihnen 2 Punkte übermittelt.","Payback","0","undefined","5","0","1","60","1080","231","10","2","1157","0","legacy","[11, 21, 31, 41, 51, 61, 71, 81, 91, 101, 111, 121, 131, 141, 151, 161, 171, 181, 191, 201, 211, 221, 231, 241, 251, 261, 271, 281, 291, 301, 311, 321, 331, 341, 351, 361, 371, 381, 391, 401, 411, 421, 431, 441, 451, 461, 471, 481, 491, 501, 511, 521, 531, 541, 551, 561, 571, 581, 591, 601, 611, 621, 631, 641, 651, 661, 671, 681, 691, 701, 711, 721, 731, 741, 751, 761, 771, 781, 791, 801, 811, 821, 831, 841, 851, 861, 871, 881, 891, 901, 911, 921, 931, 941, 951, 961, 971, 981, 991, 1001, 1011, 1021, 1031, 1041, 1051, 1061, 1071, 1081, 1091, 1101, 1111, 1121, 1131, 1141, 1151]","1268","1920","[960, 960, 960, 960, 960, 960, 960, 960, 960, 960, 960, 960, 960, 960, 960, 960, 960, 960, 960, 954, 947, 914, 872, 834, 794, 721, 689, 659, 634, 609, 558, 534, 506, 475, 415, 386, 365, 348, 322, 312, 302, 291, 277, 270, 268, 266, 261, 258, 256, 252, 242, 237, 232, 228, 222, 220, 219, 217, 213, 211, 210, 210, 210, 210, 210, 210, 210, 210, 210, 211, 211, 212, 212, 215, 216, 216, 216, 217, 217, 219, 219, 219, 219, 219, 219, 219, 219, 219, 219, 219, 219, 219, 219, 219, 219, 219, 219, 219, 219, 219, 219, 219, 219, 219, 219, 219, 219, 219, 219, 219, 219, 219, 219, 219, 219]","[1010, 1010, 1010, 1010, 1010, 1010, 1010, 1010, 1010, 1010, 1010, 1010, 1010, 1010, 1010, 1010, 1010, 1010, 1007, 1001, 992, 952, 901, 854, 800, 700, 658, 619, 592, 563, 505, 479, 449, 423, 374, 353, 334, 321, 296, 286, 277, 269, 252, 245, 240, 235, 225, 219, 214, 208, 194, 188, 183, 178, 169, 168, 165, 162, 158, 154, 153, 152, 146, 143, 140, 136, 131, 128, 124, 120, 114, 110, 107, 102, 98, 95, 93, 91, 89, 87, 87, 87, 87, 87, 87, 87, 87, 87, 87, 87, 87, 87, 87, 87, 87, 87, 87, 87, 87, 87, 87, 87, 87, 87, 87, 87, 87, 87, 87, 87, 87, 87, 87, 87, 87]"
"Promise","Wie oft werden Sie die Hälfte zurückgeben?","Promise","1","undefined","5","0","2","60","1080","221","10","1","738","0","legacy","[11, 21, 31, 41, 51, 61, 71, 81, 91, 101, 111, 121, 131, 141, 151, 161, 171, 181, 191, 201, 211, 221, 231, 241, 251, 261, 271, 281, 291, 301, 311, 321, 331, 341, 351, 361, 371, 381, 391, 401, 411, 421, 431, 441, 451, 461, 471, 481, 491, 501, 511, 521, 531, 541, 551, 561, 571, 581, 591, 601, 611, 621, 631, 641, 651, 661, 671, 681, 691, 701, 711, 721, 731]","1268","1920","[960, 960, 960, 960, 960, 960, 960, 960, 960, 960, 960, 960, 961, 961, 961, 961, 963, 964, 965, 971, 985, 998, 1017, 1035, 1084, 1114, 1147, 1188, 1267, 1315, 1359, 1418, 1544, 1598, 1637, 1665, 1715, 1730, 1739, 1748, 1753, 1754, 1755, 1755, 1756, 1756, 1756, 1756, 1756, 1756, 1756, 1756, 1756, 1756, 1756, 1756, 1756, 1756, 1756, 1756, 1755, 1754, 1754, 1751, 1750, 1750, 1750, 1750, 1750, 1750, 1750, 1750, 1750]","[1010, 1010, 1010, 1010, 1010, 1010, 1010, 1010, 1010, 1010, 1010, 1010, 1010, 1009, 1008, 1007, 1004, 1001, 997, 984, 956, 934, 906, 876, 794, 752, 702, 642, 515, 451, 387, 317, 187, 139, 108, 87, 57, 49, 42, 37, 32, 31, 29, 26, 24, 23, 23, 22, 22, 22, 22, 21, 21, 21, 21, 21, 21, 22, 23, 26, 33, 38, 42, 48, 56, 59, 60, 62, 62, 62, 62, 62, 62]"
"Trust","Teilnehmer A hat Ihnen 2 Punkte übermittelt.","Payback","1","undefined","6","0","2","60","1080","201","5","1","829","0","legacy","[11, 21, 31, 41, 51, 61, 71, 81, 91, 101, 111, 121, 131, 141, 151, 161, 171, 181, 191, 201, 211, 221, 231, 241, 251, 261, 271, 281, 291, 301, 311, 321, 331, 341, 351, 361, 371, 381, 391, 401, 411, 421, 431, 441, 451, 461, 471, 481, 491, 501, 511, 521, 531, 541, 551, 561, 571, 581, 591, 601, 611, 621, 631, 641, 651, 661, 671, 681, 691, 701, 711, 721, 731, 741, 751, 761, 771, 781, 791, 801, 811, 821]","1268","1920","[960, 960, 960, 960, 960, 960, 960, 960, 959, 959, 959, 959, 959, 959, 961, 963, 967, 971, 978, 983, 989, 1000, 1032, 1053, 1081, 1120, 1200, 1247, 1293, 1342, 1421, 1463, 1505, 1544, 1631, 1670, 1712, 1746, 1800, 1815, 1823, 1827, 1830, 1831, 1831, 1831, 1831, 1831, 1831, 1831, 1831, 1831, 1831, 1831, 1831, 1831, 1831, 1831, 1831, 1831, 1831, 1831, 1831, 1831, 1830, 1827, 1824, 1821, 1819, 1813, 1800, 1793, 1785, 1782, 1779, 1778, 1778, 1777, 1777, 1777, 1777, 1777]","[1010, 1010, 1010, 1010, 1010, 1010, 1010, 1010, 1009, 1008, 1005, 1004, 1000, 998, 992, 985, 978, 971, 951, 936, 917, 893, 841, 815, 781, 738, 650, 603, 555, 506, 413, 364, 314, 268, 166, 124, 73, 33, 0, 0, 0, 0, 0, 0, 0, 0, 0, 0, 0, 0, 0, 0, 0, 0, 0, 0, 0, 0, 0, 0, 0, 0, 0, 1, 2, 5, 6, 7, 9, 12, 17, 20, 24, 27, 29, 29, 30, 31, 31, 31, 31, 31]"
"NoTrust","Teilnehmer A hat Ihnen keine 2 Punkte übermittelt.","Payback","1","undefined","7","0","2","60","1080","201","0","1","829","0","legacy","[11, 21, 31, 41, 51, 61, 71, 81, 91, 101, 111, 121, 131, 141, 151, 161, 171, 181, 191, 201, 211, 221, 231, 241, 251, 261, 271, 281, 291, 301, 311, 321, 331, 341, 351, 361, 371, 381, 391, 401, 411, 421, 431, 441, 451, 461, 471, 481, 491, 501, 511, 521, 531, 541, 551, 561, 571, 581, 591, 601, 611, 621, 631, 641, 651, 661, 671, 681, 691, 701, 711, 721, 731, 741, 751, 761, 771, 781, 791, 801, 811, 821]","1268","1920","[960, 960, 960, 960, 960, 960, 960, 960, 959, 959, 959, 959, 959, 959, 961, 963, 967, 971, 978, 983, 989, 1000, 1032, 1053, 1081, 1120, 1200, 1247, 1293, 1342, 1421, 1463, 1505, 1544, 1631, 1670, 1712, 1746, 1800, 1815, 1823, 1827, 1830, 1831, 1831, 1831, 1831, 1831, 1831, 1831, 1831, 1831, 1831, 1831, 1831, 1831, 1831, 1831, 1831, 1831, 1831, 1831, 1831, 1831, 1830, 1827, 1824, 1821, 1819, 1813, 1800, 1793, 1785, 1782, 1779, 1778, 1778, 1777, 1777, 1777, 1777, 1777]","[1010, 1010, 1010, 1010, 1010, 1010, 1010, 1010, 1009, 1008, 1005, 1004, 1000, 998, 992, 985, 978, 971, 951, 936, 917, 893, 841, 815, 781, 738, 650, 603, 555, 506, 413, 364, 314, 268, 166, 124, 73, 33, 0, 0, 0, 0, 0, 0, 0, 0, 0, 0, 0, 0, 0, 0, 0, 0, 0, 0, 0, 0, 0, 0, 0, 0, 0, 1, 2, 5, 6, 7, 9, 12, 17, 20, 24, 27, 29, 29, 30, 31, 31, 31, 31, 31]"
"Trust","Teilnehmer A hat Ihnen 2 Punkte übermittelt.","Payback","1","undefined","8","0","2","60","1080","221","5","1","837","0","legacy","[11, 21, 31, 41, 51, 61, 71, 81, 91, 101, 111, 121, 131, 141, 151, 161, 171, 181, 191, 201, 211, 221, 231, 241, 251, 261, 271, 281, 291, 301, 311, 321, 331, 341, 351, 361, 371, 381, 391, 401, 411, 421, 431, 441, 451, 461, 471, 481, 491, 501, 511, 521, 531, 541, 551, 561, 571, 581, 591, 601, 611, 621, 631, 641, 651, 661, 671, 681, 691, 701, 711, 721, 731, 741, 751, 761, 771, 781, 791, 801, 811, 821, 831]","1268","1920","[960, 960, 960, 960, 960, 960, 960, 960, 960, 960, 960, 960, 960, 961, 964, 965, 969, 971, 976, 981, 992, 1007, 1058, 1092, 1120, 1159, 1225, 1268, 1310, 1356, 1459, 1513, 1563, 1616, 1707, 1740, 1764, 1777, 1796, 1799, 1802, 1802, 1802, 1799, 1797, 1792, 1779, 1775, 1768, 1764, 1753, 1748, 1739, 1728, 1706, 1695, 1684, 1678, 1670, 1668, 1666, 1666, 1666, 1666, 1666, 1666, 1666, 1666, 1666, 1666, 1666, 1666, 1666, 1666, 1666, 1669, 1673, 1677, 1687, 1690, 1691, 1691, 1692]","[1010, 1010, 1010, 1010, 1010, 1010, 1010, 1010, 1010, 1010, 1010, 1010, 1010, 1008, 1002, 998, 991, 986, 974, 964, 946, 919, 842, 799, 758, 712, 640, 597, 551, 502, 389, 335, 281, 236, 177, 159, 148, 141, 126, 122, 118, 115, 109, 105, 103, 101, 96, 94, 90, 88, 82, 80, 79, 77, 76, 76, 76, 76, 78, 81, 82, 83, 83, 83, 83, 83, 83, 83, 83, 83, 83, 83, 83, 83, 84, 84, 84, 84, 84, 84, 84, 84, 84]"
"Promise","Wie oft werden Sie die Hälfte zurückgeben?","Promise","0","undefined","8","0","3","60","1080","251","5","2","712","0","legacy","[11, 21, 31, 41, 51, 61, 71, 81, 91, 101, 111, 121, 131, 141, 151, 161, 171, 181, 191, 201, 211, 221, 231, 241, 251, 261, 271, 281, 291, 301, 311, 321, 331, 341, 351, 361, 371, 381, 391, 401, 411, 421, 431, 441, 451, 461, 471, 481, 491, 501, 511, 521, 531, 541, 551, 561, 571, 581, 591, 601, 611, 621, 631, 641, 651, 661, 671, 681, 691, 701, 711]","1268","1920","[960, 960, 960, 960, 960, 962, 962, 963, 963, 963, 963, 963, 963, 963, 963, 963, 963, 963, 963, 960, 957, 953, 944, 922, 900, 861, 814, 713, 654, 597, 546, 450, 424, 391, 363, 311, 298, 281, 271, 253, 245, 239, 232, 226, 224, 224, 221, 211, 204, 190, 175, 148, 136, 123, 103, 76, 63, 54, 47, 40, 40, 40, 40, 40, 40, 40, 40, 40, 40, 40, 40]","[1010, 1010, 1010, 1010, 1009, 1008, 1007, 1001, 999, 998, 996, 994, 993, 993, 993, 993, 992, 992, 991, 989, 986, 982, 973, 940, 907, 848, 779, 609, 510, 406, 310, 111, 42, 0, 0, 0, 0, 0, 0, 0, 0, 0, 0, 0, 0, 0, 0, 0, 2, 6, 11, 23, 30, 37, 51, 74, 86, 95, 102, 109, 110, 110, 110, 110, 110, 110, 110, 110, 110, 110, 110]"
"Trust","Teilnehmer A hat Ihnen 2 Punkte übermittelt.","Payback","0","undefined","9","0","3","60","1080","181","10","2","853","0","legacy","[11, 21, 31, 41, 51, 61, 71, 81, 91, 101, 111, 121, 131, 141, 151, 161, 171, 181, 191, 201, 211, 221, 231, 241, 251, 261, 271, 281, 291, 301, 311, 321, 331, 341, 351, 361, 371, 381, 391, 401, 411, 421, 431, 441, 451, 461, 471, 481, 491, 501, 511, 521, 531, 541, 551, 561, 571, 581, 591, 601, 611, 621, 631, 641, 651, 661, 671, 681, 691, 701, 711, 721, 731, 741, 751, 761, 771, 781, 791, 801, 811, 821, 831, 841, 851]","1268","1920","[960, 960, 960, 960, 960, 960, 960, 960, 960, 959, 959, 958, 956, 954, 948, 944, 938, 930, 915, 903, 889, 880, 853, 844, 831, 808, 741, 709, 665, 630, 558, 522, 496, 465, 417, 400, 387, 377, 363, 355, 353, 350, 343, 340, 338, 335, 329, 327, 323, 320, 313, 308, 304, 301, 295, 293, 289, 287, 278, 273, 266, 260, 245, 235, 227, 217, 195, 183, 175, 166, 151, 150, 147, 147, 147, 147, 147, 147, 147, 147, 147, 147, 147, 147, 147]","[1010, 1010, 1010, 1010, 1010, 1010, 1010, 1010, 1010, 1011, 1011, 1007, 1001, 991, 971, 959, 944, 928, 895, 880, 860, 844, 800, 777, 753, 724, 649, 619, 591, 560, 511, 484, 465, 444, 409, 394, 383, 372, 351, 342, 334, 326, 310, 300, 290, 280, 263, 256, 251, 245, 238, 231, 228, 224, 216, 212, 209, 206, 199, 195, 190, 186, 178, 172, 168, 162, 153, 148, 143, 138, 129, 128, 125, 124, 122, 119, 118, 116, 111, 110, 108, 107, 107, 107, 107]"
"Trust","Teilnehmer A hat Ihnen 2 Punkte übermittelt.","Payback","0","undefined","10","0","3","60","1080","141","10","2","941","0","legacy","[11, 21, 31, 41, 51, 61, 71, 81, 91, 101, 111, 121, 131, 141, 151, 161, 171, 181, 191, 201, 211, 221, 231, 241, 251, 261, 271, 281, 291, 301, 311, 321, 331, 341, 351, 361, 371, 381, 391, 401, 411, 421, 431, 441, 451, 461, 471, 481, 491, 501, 511, 521, 531, 541, 551, 561, 571, 581, 591, 601, 611, 621, 631, 641, 651, 661, 671, 681, 691, 701, 711, 721, 731, 741, 751, 761, 771, 781, 791, 801, 811, 821, 831, 841, 851, 861, 871, 881, 891, 901, 911, 921, 931, 941]","1268","1920","[960, 960, 960, 960, 960, 960, 960, 960, 960, 955, 950, 943, 937, 909, 891, 868, 841, 790, 762, 730, 699, 629, 590, 556, 519, 463, 432, 393, 360, 275, 231, 172, 121, 16, 0, 0, 0, 0, 0, 0, 0, 0, 0, 0, 0, 0, 0, 0, 0, 0, 0, 0, 2, 4, 6, 8, 12, 18, 19, 21, 24, 31, 35, 42, 44, 52, 54, 56, 56, 56, 57, 57, 57, 58, 58, 58, 58, 58, 58, 58, 58, 58, 58, 58, 58, 58, 58, 58, 58, 58, 58, 58, 58, 58]","[1010, 1010, 1010, 1010, 1010, 1010, 1010, 1010, 1009, 1002, 999, 988, 976, 920, 875, 819, 762, 641, 581, 524, 472, 379, 336, 297, 261, 209, 187, 160, 138, 88, 60, 39, 17, 0, 0, 0, 0, 0, 0, 0, 0, 0, 0, 2, 5, 13, 19, 24, 31, 41, 44, 46, 51, 55, 60, 62, 66, 68, 69, 69, 69, 69, 69, 69, 69, 69, 69, 69, 69, 69, 69, 69, 69, 69, 69, 69, 69, 69, 69, 69, 69, 69, 69, 69, 69, 69, 69, 69, 69, 69, 69, 69, 69, 69]"
"Trust","Teilnehmer A hat Ihnen 2 Punkte übermittelt.","Payback","0","undefined","11","0","3","60","1080","191","10","2","653","0","legacy","[11, 21, 31, 41, 51, 61, 71, 81, 91, 101, 111, 121, 131, 141, 151, 161, 171, 181, 191, 201, 211, 221, 231, 241, 251, 261, 271, 281, 291, 301, 311, 321, 331, 341, 351, 361, 371, 381, 391, 401, 411, 421, 431, 441, 451, 461, 471, 481, 491, 501, 511, 521, 531, 541, 551, 561, 571, 581, 591, 601, 611, 621, 631, 641, 651]","1268","1920","[960, 960, 960, 960, 960, 960, 960, 960, 960, 960, 960, 960, 960, 961, 961, 959, 952, 940, 910, 890, 870, 848, 793, 769, 742, 715, 669, 642, 618, 600, 553, 527, 509, 492, 461, 443, 420, 401, 360, 345, 335, 327, 310, 303, 295, 287, 268, 257, 248, 236, 212, 194, 173, 156, 135, 126, 120, 118, 117, 117, 117, 117, 117, 117, 117]","[1010, 1010, 1010, 1010, 1010, 1010, 1010, 1010, 1010, 1010, 1010, 1010, 1010, 1010, 998, 986, 972, 948, 891, 861, 815, 772, 674, 630, 591, 552, 497, 470, 448, 432, 391, 371, 354, 339, 313, 298, 280, 267, 234, 221, 211, 202, 180, 171, 161, 151, 130, 122, 114, 109, 94, 88, 79, 72, 64, 60, 58, 56, 56, 56, 56, 56, 56, 56, 56]"
"Promise","Wie oft werden Sie die Hälfte zurückgeben?","Promise","0","undefined","11","0","4","60","1080","201","10","2","840","0","legacy","[11, 21, 31, 41, 51, 61, 71, 81, 91, 101, 111, 121, 131, 141, 151, 161, 171, 181, 191, 201, 211, 221, 231, 241, 251, 261, 271, 281, 291, 301, 311, 321, 331, 341, 351, 361, 371, 381, 391, 401, 411, 421, 431, 441, 451, 461, 471, 481, 491, 501, 511, 521, 531, 541, 551, 561, 571, 581, 591, 601, 611, 621, 631, 641, 651, 661, 671, 681, 691, 701, 711, 721, 731, 741, 751, 761, 771, 781, 791, 801, 811, 821, 831]","1268","1920","[960, 960, 960, 960, 960, 960, 960, 960, 960, 960, 960, 960, 960, 961, 961, 954, 947, 939, 926, 877, 843, 804, 766, 685, 640, 595, 548, 464, 435, 412, 392, 368, 355, 347, 336, 323, 315, 308, 302, 283, 274, 262, 250, 217, 194, 169, 145, 83, 53, 28, 13, 0, 0, 0, 0, 0, 0, 0, 0, 0, 0, 0, 0, 0, 0, 0, 0, 0, 0, 1, 4, 11, 14, 20, 26, 34, 38, 39, 40, 41, 41, 41, 42]","[1010, 1010, 1010, 1010, 1010, 1010, 1010, 1010, 1010, 1010, 1010, 1010, 1010, 1007, 1004, 991, 981, 970, 946, 862, 807, 746, 672, 493, 414, 342, 288, 211, 185, 165, 148, 124, 114, 106, 99, 89, 86, 84, 81, 73, 70, 65, 60, 45, 36, 21, 10, 0, 0, 0, 0, 0, 0, 0, 0, 0, 0, 0, 0, 0, 0, 0, 0, 0, 0, 0, 0, 0, 1, 6, 12, 24, 30, 37, 44, 49, 51, 52, 53, 53, 53, 53, 53]"
"Trust","Teilnehmer A hat Ihnen 2 Punkte übermittelt.","Payback","0","undefined","12","0","4","60","1080","221","10","2","645","0","legacy","[11, 21, 31, 41, 51, 61, 71, 81, 91, 101, 111, 121, 131, 141, 151, 161, 171, 181, 191, 201, 211, 221, 231, 241, 251, 261, 271, 281, 291, 301, 311, 321, 331, 341, 351, 361, 371, 381, 391, 401, 411, 421, 431, 441, 451, 461, 471, 481, 491, 501, 511, 521, 531, 541, 551, 561, 571, 581, 591, 601, 611, 621, 631, 641]","1268","1920","[960, 960, 960, 960, 960, 960, 960, 960, 960, 960, 960, 960, 960, 960, 960, 960, 960, 959, 949, 939, 929, 913, 876, 853, 829, 802, 749, 718, 683, 651, 586, 558, 533, 510, 469, 448, 430, 413, 377, 359, 336, 313, 273, 250, 232, 215, 190, 181, 170, 162, 155, 153, 153, 152, 151, 151, 151, 151, 151, 151, 151, 151, 151, 151]","[1010, 1010, 1010, 1010, 1010, 1010, 1010, 1010, 1010, 1010, 1010, 1010, 1010, 1010, 1009, 1008, 1004, 1000, 985, 968, 949, 927, 878, 849, 821, 784, 714, 664, 619, 572, 488, 454, 425, 399, 340, 311, 291, 270, 231, 216, 198, 182, 158, 144, 135, 124, 107, 101, 93, 86, 79, 76, 76, 76, 75, 75, 74, 74, 74, 74, 74, 74, 74, 74]"
"Trust","Teilnehmer A hat Ihnen 2 Punkte übermittelt.","Payback","0","undefined","13","0","4","60","1080","201","10","2","924","0","legacy","[11, 21, 31, 41, 51, 61, 71, 81, 91, 101, 111, 121, 131, 141, 151, 161, 171, 181, 191, 201, 211, 221, 231, 241, 251, 261, 271, 281, 291, 301, 311, 321, 331, 341, 351, 361, 371, 381, 391, 401, 411, 421, 431, 441, 451, 461, 471, 481, 491, 501, 511, 521, 531, 541, 551, 561, 571, 581, 591, 601, 611, 621, 631, 641, 651, 661, 671, 681, 691, 701, 711, 721, 731, 741, 751, 761, 771, 781, 791, 801, 811, 821, 831, 841, 851, 861, 871, 881, 891, 901, 911, 921]","1268","1920","[960, 960, 960, 960, 960, 960, 960, 960, 960, 960, 960, 960, 960, 960, 960, 960, 958, 943, 932, 908, 876, 805, 773, 745, 725, 691, 676, 662, 633, 550, 495, 441, 387, 284, 238, 200, 167, 129, 107, 93, 81, 63, 58, 54, 50, 47, 46, 45, 45, 42, 40, 37, 35, 26, 20, 15, 11, 8, 8, 7, 7, 7, 7, 7, 7, 7, 7, 7, 7, 7, 7, 7, 7, 7, 7, 9, 13, 28, 37, 46, 49, 63, 69, 76, 82, 90, 93, 95, 98, 99, 99, 99]","[1010, 1010, 1010, 1010, 1010, 1010, 1010, 1010, 1010, 1010, 1010, 1010, 1010, 1010, 1010, 1008, 1002, 979, 958, 922, 870, 762, 722, 690, 667, 636, 618, 601, 566, 473, 416, 361, 319, 243, 217, 196, 180, 156, 143, 133, 123, 111, 106, 102, 96, 89, 87, 85, 84, 76, 73, 68, 62, 47, 40, 31, 26, 19, 18, 16, 16, 16, 16, 16, 16, 16, 16, 16, 16, 16, 16, 16, 16, 16, 16, 17, 20, 28, 32, 36, 40, 49, 51, 54, 56, 59, 59, 59, 60, 60, 60, 60]"
"Trust","Teilnehmer A hat Ihnen 2 Punkte übermittelt.","Payback","1","undefined","14","0","4","60","1080","191","5","1","774","0","legacy","[11, 21, 31, 41, 51, 61, 71, 81, 91, 101, 111, 121, 131, 141, 151, 161, 171, 181, 191, 201, 211, 221, 231, 241, 251, 261, 271, 281, 291, 301, 311, 321, 331, 341, 351, 361, 371, 381, 391, 401, 411, 421, 431, 441, 451, 461, 471, 481, 491, 501, 511, 521, 531, 541, 551, 561, 571, 581, 591, 601, 611, 621, 631, 641, 651, 661, 671, 681, 691, 701, 711, 721, 731, 741, 751, 761, 771]","1268","1920","[960, 960, 960, 960, 960, 960, 960, 960, 960, 960, 963, 965, 969, 970, 979, 986, 993, 1002, 1027, 1053, 1080, 1113, 1200, 1244, 1293, 1340, 1413, 1440, 1466, 1491, 1532, 1548, 1561, 1571, 1596, 1607, 1617, 1624, 1635, 1638, 1639, 1639, 1639, 1639, 1639, 1639, 1642, 1642, 1644, 1646, 1652, 1656, 1660, 1664, 1669, 1670, 1671, 1672, 1675, 1678, 1679, 1681, 1684, 1688, 1689, 1692, 1696, 1698, 1699, 1701, 1702, 1703, 1705, 1706, 1706, 1706, 1706]","[1010, 1010, 1010, 1010, 1010, 1010, 1010, 1010, 1010, 1010, 1009, 1004, 998, 993, 980, 970, 955, 941, 907, 875, 836, 789, 667, 603, 536, 483, 409, 385, 362, 343, 312, 303, 296, 289, 279, 274, 269, 264, 255, 249, 244, 241, 238, 236, 236, 235, 232, 231, 229, 228, 222, 217, 212, 206, 195, 189, 185, 181, 175, 169, 167, 164, 156, 151, 145, 140, 129, 124, 117, 112, 102, 98, 93, 92, 89, 89, 89]"
"Promise","Wie oft werden Sie die Hälfte zurückgeben?","Promise","0","undefined","14","0","5","60","1080","241","5","2","857","0","legacy","[11, 21, 31, 41, 51, 61, 71, 81, 91, 101, 111, 121, 131, 141, 151, 161, 171, 181, 191, 201, 211, 221, 231, 241, 251, 261, 271, 281, 291, 301, 311, 321, 331, 341, 351, 361, 371, 381, 391, 401, 411, 421, 431, 441, 451, 461, 471, 481, 491, 501, 511, 521, 531, 541, 551, 561, 571, 581, 591, 601, 611, 621, 631, 641, 651, 661, 671, 681, 691, 701, 711, 721, 731, 741, 751, 761, 771, 781, 791, 801, 811, 821, 831, 841, 851]","1268","1920","[960, 960, 960, 960, 960, 960, 960, 960, 960, 960, 960, 960, 960, 960, 960, 960, 958, 956, 952, 945, 920, 895, 865, 816, 733, 690, 653, 615, 564, 551, 538, 527, 490, 467, 441, 414, 374, 358, 347, 339, 334, 333, 332, 332, 332, 332, 332, 332, 332, 332, 332, 332, 331, 329, 329, 328, 325, 324, 324, 324, 324, 324, 324, 324, 324, 324, 324, 324, 323, 319, 309, 297, 250, 223, 190, 162, 116, 101, 91, 87, 85, 85, 85, 85, 85]","[1010, 1010, 1010, 1010, 1010, 1010, 1010, 1010, 1010, 1010, 1010, 1010, 1010, 1010, 1010, 1009, 1001, 1000, 998, 996, 978, 962, 944, 920, 881, 861, 847, 830, 802, 791, 773, 750, 627, 542, 437, 341, 178, 126, 95, 79, 67, 65, 62, 61, 59, 59, 59, 59, 58, 58, 56, 55, 46, 40, 37, 34, 25, 22, 19, 18, 18, 18, 18, 18, 18, 18, 18, 18, 18, 18, 23, 33, 64, 81, 97, 107, 116, 118, 119, 119, 119, 119, 119, 119, 119]"
"NoTrust","Teilnehmer A hat Ihnen keine 2 Punkte übermittelt.","Payback","0","undefined","15","0","5","60","1080","241","0","2","857","0","legacy","[11, 21, 31, 41, 51, 61, 71, 81, 91, 101, 111, 121, 131, 141, 151, 161, 171, 181, 191, 201, 211, 221, 231, 241, 251, 261, 271, 281, 291, 301, 311, 321, 331, 341, 351, 361, 371, 381, 391, 401, 411, 421, 431, 441, 451, 461, 471, 481, 491, 501, 511, 521, 531, 541, 551, 561, 571, 581, 591, 601, 611, 621, 631, 641, 651, 661, 671, 681, 691, 701, 711, 721, 731, 741, 751, 761, 771, 781, 791, 801, 811, 821, 831, 841, 851]","1268","1920","[960, 960, 960, 960, 960, 960, 960, 960, 960, 960, 960, 960, 960, 960, 960, 960, 958, 956, 952, 945, 920, 895, 865, 816, 733, 690, 653, 615, 564, 551, 538, 527, 490, 467, 441, 414, 374, 358, 347, 339, 334, 333, 332, 332, 332, 332, 332, 332, 332, 332, 332, 332, 331, 329, 329, 328, 325, 324, 324, 324, 324, 324, 324, 324, 324, 324, 324, 324, 323, 319, 309, 297, 250, 223, 190, 162, 116, 101, 91, 87, 85, 85, 85, 85, 85]","[1010, 1010, 1010, 1010, 1010, 1010, 1010, 1010, 1010, 1010, 1010, 1010, 1010, 1010, 1010, 1009, 1001, 1000, 998, 996, 978, 962, 944, 920, 881, 861, 847, 830, 802, 791, 773, 750, 627, 542, 437, 341, 178, 126, 95, 79, 67, 65, 62, 61, 59, 59, 59, 59, 58, 58, 56, 55, 46, 40, 37, 34, 25, 22, 19, 18, 18, 18, 18, 18, 18, 18, 18, 18, 18, 18, 23, 33, 64, 81, 97, 107, 116, 118, 119, 119, 119, 119, 119, 119, 119]"
"Trust","Teilnehmer A hat Ihnen 2 Punkte übermittelt.","Payback","1","undefined","16","0","5","60","1080","151","5","1","573","0","legacy","[11, 21, 31, 41, 51, 61, 71, 81, 91, 101, 111, 121, 131, 141, 151, 161, 171, 181, 191, 201, 211, 221, 231, 241, 251, 261, 271, 281, 291, 301, 311, 321, 331, 341, 351, 361, 371, 381, 391, 401, 411, 421, 431, 441, 451, 461, 471, 481, 491, 501, 511, 521, 531, 541, 551, 561, 571]","1268","1920","[960, 960, 960, 960, 960, 960, 960, 960, 960, 960, 960, 963, 969, 976, 1003, 1025, 1049, 1082, 1156, 1203, 1254, 1312, 1405, 1450, 1490, 1529, 1602, 1628, 1651, 1668, 1689, 1696, 1699, 1702, 1705, 1705, 1706, 1707, 1707, 1707, 1709, 1710, 1713, 1714, 1715, 1717, 1719, 1720, 1722, 1722, 1724, 1726, 1726, 1726, 1726, 1726, 1726]","[1010, 1010, 1010, 1010, 1010, 1010, 1010, 1010, 1010, 1010, 1004, 997, 987, 972, 926, 897, 861, 816, 706, 642, 577, 510, 415, 378, 344, 315, 263, 238, 222, 211, 191, 183, 179, 175, 167, 164, 159, 158, 153, 150, 148, 147, 139, 138, 135, 130, 124, 119, 116, 113, 106, 103, 102, 100, 99, 99, 99]"
"Trust","Teilnehmer A hat Ihnen 2 Punkte übermittelt.","Payback","0","undefined","17","0","5","60","1080","151","10","2","645","0","legacy","[11, 21, 31, 41, 51, 61, 71, 81, 91, 101, 111, 121, 131, 141, 151, 161, 171, 181, 191, 201, 211, 221, 231, 241, 251, 261, 271, 281, 291, 301, 311, 321, 331, 341, 351, 361, 371, 381, 391, 401, 411, 421, 431, 441, 451, 461, 471, 481, 491, 501, 511, 521, 531, 541, 551, 561, 571, 581, 591, 601, 611, 621, 631, 641]","1268","1920","[960, 960, 960, 960, 960, 960, 960, 960, 960, 961, 960, 956, 954, 949, 929, 915, 891, 870, 818, 787, 758, 733, 686, 670, 657, 649, 634, 624, 612, 601, 566, 547, 517, 495, 452, 434, 414, 399, 354, 335, 320, 305, 285, 274, 264, 251, 217, 205, 195, 186, 168, 158, 148, 136, 112, 106, 103, 102, 102, 102, 102, 102, 102, 102]","[1010, 1010, 1010, 1010, 1010, 1010, 1010, 1010, 1010, 1010, 996, 982, 967, 954, 926, 910, 879, 841, 753, 704, 652, 598, 498, 461, 430, 399, 366, 351, 336, 326, 301, 290, 273, 260, 235, 227, 215, 207, 186, 177, 169, 163, 152, 146, 141, 134, 117, 111, 108, 105, 100, 98, 94, 92, 85, 83, 82, 82, 82, 82, 82, 82, 82, 82]"
"Promise","Wie oft werden Sie die Hälfte zurückgeben?","Promise","0","undefined","17","0","6","60","1080","171","10","2","680","0","legacy","[11, 21, 31, 41, 51, 61, 71, 81, 91, 101, 111, 121, 131, 141, 151, 161, 171, 181, 191, 201, 211, 221, 231, 241, 251, 261, 271, 281, 291, 301, 311, 321, 331, 341, 351, 361, 371, 381, 391, 401, 411, 421, 431, 441, 451, 461, 471, 481, 491, 501, 511, 521, 531, 541, 551, 561, 571, 581, 591, 601, 611, 621, 631, 641, 651, 661, 671]","1268","1920","[960, 960, 960, 960, 960, 960, 960, 960, 960, 960, 960, 960, 960, 960, 960, 960, 957, 953, 948, 928, 915, 904, 886, 836, 810, 782, 747, 672, 628, 592, 548, 465, 426, 392, 357, 322, 311, 304, 299, 290, 288, 286, 284, 282, 281, 281, 279, 275, 272, 268, 262, 248, 243, 238, 232, 227, 226, 225, 225, 223, 223, 222, 222, 220, 219, 218, 218]","[1010, 1010, 1010, 1010, 1010, 1010, 1010, 1010, 1010, 1008, 1001, 988, 982, 975, 969, 950, 939, 926, 912, 868, 841, 817, 784, 694, 651, 594, 541, 428, 369, 309, 245, 141, 98, 68, 39, 8, 0, 0, 0, 0, 0, 0, 0, 0, 0, 0, 0, 3, 4, 7, 9, 12, 12, 14, 15, 18, 20, 21, 21, 22, 22, 23, 23, 25, 27, 27, 29]"
"Trust","Teilnehmer A hat Ihnen 2 Punkte übermittelt.","Payback","0","undefined","18","0","6","60","1080","181","10","2","684","0","legacy","[11, 21, 31, 41, 51, 61, 71, 81, 91, 101, 111, 121, 131, 141, 151, 161, 171, 181, 191, 201, 211, 221, 231, 241, 251, 261, 271, 281, 291, 301, 311, 321, 331, 341, 351, 361, 371, 381, 391, 401, 411, 421, 431, 441, 451, 461, 471, 481, 491, 501, 511, 521, 531, 541, 551, 561, 571, 581, 591, 601, 611, 621, 631, 641, 651, 661, 671, 681]","1268","1920","[959, 959, 959, 959, 959, 959, 959, 959, 958, 955, 953, 952, 952, 948, 944, 939, 930, 883, 851, 824, 803, 781, 761, 741, 715, 655, 616, 584, 547, 483, 460, 443, 430, 403, 390, 379, 366, 351, 346, 341, 336, 329, 325, 324, 319, 312, 307, 302, 298, 291, 287, 285, 283, 277, 276, 271, 265, 250, 240, 230, 222, 207, 205, 205, 204, 204, 204, 204]","[1011, 1011, 1011, 1011, 1011, 1011, 1011, 1011, 1010, 1007, 1005, 1001, 998, 988, 976, 965, 948, 878, 836, 797, 759, 714, 681, 653, 619, 546, 503, 458, 413, 331, 305, 287, 270, 241, 228, 215, 202, 183, 178, 173, 168, 162, 159, 158, 155, 149, 145, 143, 140, 136, 133, 131, 129, 123, 122, 118, 114, 107, 101, 98, 93, 90, 90, 90, 90, 90, 90, 90]"
"Trust","Teilnehmer A hat Ihnen 2 Punkte übermittelt.","Payback","0","undefined","19","0","6","60","1080","191","10","2","637","0","legacy","[11, 21, 31, 41, 51, 61, 71, 81, 91, 101, 111, 121, 131, 141, 151, 161, 171, 181, 191, 201, 211, 221, 231, 241, 251, 261, 271, 281, 291, 301, 311, 321, 331, 341, 351, 361, 371, 381, 391, 401, 411, 421, 431, 441, 451, 461, 471, 481, 491, 501, 511, 521, 531, 541, 551, 561, 571, 581, 591, 601, 611, 621, 631]","1268","1920","[960, 960, 960, 960, 960, 960, 960, 960, 960, 960, 959, 958, 956, 954, 949, 943, 934, 922, 858, 816, 769, 699, 673, 649, 622, 569, 529, 488, 441, 353, 324, 306, 296, 284, 278, 270, 266, 258, 257, 257, 257, 257, 257, 257, 257, 256, 254, 251, 250, 245, 241, 236, 233, 222, 213, 207, 200, 188, 186, 184, 184, 184, 184]","[1010, 1010, 1010, 1010, 1011, 1011, 1011, 1011, 1011, 1011, 1011, 1008, 1005, 1000, 986, 978, 970, 961, 919, 889, 858, 810, 783, 754, 715, 635, 587, 541, 492, 410, 385, 370, 358, 336, 326, 313, 302, 278, 271, 263, 257, 243, 236, 227, 217, 197, 184, 174, 163, 144, 131, 120, 111, 95, 85, 80, 74, 66, 64, 63, 62, 62, 62]"
"Trust","Teilnehmer A hat Ihnen 2 Punkte übermittelt.","Payback","0","undefined","20","0","6","60","1080","161","10","2","765","0","legacy","[11, 21, 31, 41, 51, 61, 71, 81, 91, 101, 111, 121, 131, 141, 151, 161, 171, 181, 191, 201, 211, 221, 231, 241, 251, 261, 271, 281, 291, 301, 311, 321, 331, 341, 351, 361, 371, 381, 391, 401, 411, 421, 431, 441, 451, 461, 471, 481, 491, 501, 511, 521, 531, 541, 551, 561, 571, 581, 591, 601, 611, 621, 631, 641, 651, 661, 671, 681, 691, 701, 711, 721, 731, 741, 751, 761]","1268","1920","[960, 960, 960, 960, 960, 960, 960, 960, 959, 955, 950, 945, 940, 933, 910, 900, 884, 861, 802, 774, 744, 716, 662, 625, 587, 543, 450, 411, 383, 360, 325, 305, 290, 276, 262, 258, 253, 251, 244, 242, 241, 239, 236, 236, 234, 233, 232, 231, 231, 231, 230, 229, 228, 228, 226, 225, 223, 220, 217, 216, 215, 214, 209, 207, 205, 203, 200, 198, 197, 197, 192, 190, 189, 188, 188, 188]","[1010, 1010, 1010, 1010, 1010, 1010, 1010, 1010, 1007, 1003, 992, 986, 977, 968, 941, 927, 904, 878, 802, 768, 736, 704, 643, 608, 574, 542, 472, 445, 423, 407, 380, 364, 350, 337, 318, 310, 302, 295, 281, 275, 269, 264, 251, 245, 237, 231, 222, 218, 216, 213, 210, 208, 205, 203, 196, 191, 187, 181, 174, 172, 167, 163, 153, 149, 143, 138, 130, 124, 121, 118, 110, 107, 104, 103, 102, 101]"
"Promise","Wie oft werden Sie die Hälfte zurückgeben?","Promise","0","undefined","20","0","7","60","1080","211","10","2","641","0","legacy","[11, 21, 31, 41, 51, 61, 71, 81, 91, 101, 111, 121, 131, 141, 151, 161, 171, 181, 191, 201, 211, 221, 231, 241, 251, 261, 271, 281, 291, 301, 311, 321, 331, 341, 351, 361, 371, 381, 391, 401, 411, 421, 431, 441, 451, 461, 471, 481, 491, 501, 511, 521, 531, 541, 551, 561, 571, 581, 591, 601, 611, 621, 631, 641]","1268","1920","[960, 960, 960, 960, 960, 960, 960, 960, 960, 960, 960, 960, 960, 960, 960, 960, 960, 957, 951, 944, 896, 856, 802, 751, 640, 580, 531, 479, 394, 353, 316, 290, 242, 222, 211, 201, 189, 184, 181, 177, 168, 164, 158, 151, 144, 142, 142, 142, 142, 142, 142, 142, 142, 142, 142, 142, 142, 142, 142, 142, 142, 142, 142, 142]","[1010, 1010, 1010, 1010, 1010, 1010, 1010, 1010, 1010, 1010, 1010, 1010, 1010, 1010, 1009, 1007, 1000, 994, 981, 968, 891, 841, 773, 709, 580, 525, 471, 421, 330, 289, 256, 227, 172, 146, 127, 113, 92, 82, 75, 66, 49, 43, 36, 29, 23, 22, 22, 22, 21, 21, 21, 21, 21, 21, 21, 21, 21, 21, 21, 21, 21, 21, 21, 21]"
"Trust","Teilnehmer A hat Ihnen 2 Punkte übermittelt.","Payback","0","undefined","21","0","7","60","1080","161","10","2","767","0","legacy","[11, 21, 31, 41, 51, 61, 71, 81, 91, 101, 111, 121, 131, 141, 151, 161, 171, 181, 191, 201, 211, 221, 231, 241, 251, 261, 271, 281, 291, 301, 311, 321, 331, 341, 351, 361, 371, 381, 391, 401, 411, 421, 431, 441, 451, 461, 471, 481, 491, 501, 511, 521, 531, 541, 551, 561, 571, 581, 591, 601, 611, 621, 631, 641, 651, 661, 671, 681, 691, 701, 711, 721, 731, 741, 751, 761]","1268","1920","[960, 961, 961, 961, 961, 961, 961, 961, 960, 960, 960, 955, 951, 950, 946, 930, 915, 883, 839, 734, 680, 632, 589, 522, 498, 480, 464, 439, 427, 419, 410, 396, 391, 387, 384, 380, 378, 376, 374, 373, 373, 373, 372, 371, 369, 365, 361, 350, 343, 336, 325, 304, 293, 282, 271, 262, 260, 258, 258, 255, 255, 255, 254, 250, 249, 247, 244, 238, 235, 233, 229, 227, 225, 225, 224, 224]","[1010, 1009, 1009, 1009, 1009, 1009, 1009, 1007, 1005, 1002, 998, 986, 979, 972, 962, 935, 917, 889, 857, 760, 690, 608, 531, 409, 365, 332, 310, 278, 263, 254, 245, 231, 224, 221, 217, 214, 213, 211, 210, 210, 210, 209, 209, 208, 208, 208, 208, 208, 208, 207, 205, 203, 201, 199, 197, 193, 193, 190, 190, 185, 182, 180, 177, 168, 163, 155, 146, 133, 128, 123, 119, 114, 112, 111, 111, 110]"
"Trust","Teilnehmer A hat Ihnen 2 Punkte übermittelt.","Payback","0","undefined","22","0","7","60","1080","251","10","2","741","0","legacy","[11, 21, 31, 41, 51, 61, 71, 81, 91, 101, 111, 121, 131, 141, 151, 161, 171, 181, 191, 201, 211, 221, 231, 241, 251, 261, 271, 281, 291, 301, 311, 321, 331, 341, 351, 361, 371, 381, 391, 401, 411, 421, 431, 441, 451, 461, 471, 481, 491, 501, 511, 521, 531, 541, 551, 561, 571, 581, 591, 601, 611, 621, 631, 641, 651, 661, 671, 681, 691, 701, 711, 721, 731, 741]","1268","1920","[960, 960, 960, 960, 960, 960, 960, 960, 960, 960, 960, 960, 960, 960, 960, 960, 960, 960, 960, 960, 960, 959, 953, 945, 927, 905, 846, 805, 765, 730, 682, 663, 648, 632, 597, 580, 555, 525, 455, 429, 416, 406, 397, 393, 390, 386, 377, 374, 371, 368, 363, 361, 356, 351, 332, 321, 309, 294, 262, 247, 236, 228, 209, 202, 193, 182, 161, 152, 146, 141, 140, 140, 140, 140]","[1010, 1010, 1010, 1010, 1010, 1010, 1010, 1010, 1010, 1010, 1010, 1010, 1010, 1010, 1010, 1010, 1010, 1010, 1009, 1008, 1005, 1003, 987, 970, 935, 887, 796, 750, 702, 655, 568, 527, 485, 443, 355, 318, 279, 237, 152, 123, 110, 98, 87, 82, 78, 73, 67, 64, 63, 62, 61, 61, 61, 61, 61, 61, 61, 61, 61, 61, 61, 61, 61, 61, 61, 61, 61, 61, 61, 61, 61, 61, 61, 61]"
"Trust","Teilnehmer A hat Ihnen 2 Punkte übermittelt.","Payback","0","undefined","23","0","7","60","1080","171","10","2","759","0","legacy","[11, 21, 31, 41, 51, 61, 71, 81, 91, 101, 111, 121, 131, 141, 151, 161, 171, 181, 191, 201, 211, 221, 231, 241, 251, 261, 271, 281, 291, 301, 311, 321, 331, 341, 351, 361, 371, 381, 391, 401, 411, 421, 431, 441, 451, 461, 471, 481, 491, 501, 511, 521, 531, 541, 551, 561, 571, 581, 591, 601, 611, 621, 631, 641, 651, 661, 671, 681, 691, 701, 711, 721, 731, 741, 751]","1268","1920","[960, 960, 960, 960, 960, 960, 960, 959, 958, 956, 954, 950, 946, 941, 938, 923, 910, 893, 867, 802, 770, 735, 711, 668, 642, 617, 586, 523, 483, 439, 394, 320, 297, 272, 253, 217, 205, 186, 175, 155, 149, 144, 140, 137, 137, 137, 137, 137, 137, 137, 137, 137, 137, 137, 137, 137, 137, 137, 137, 136, 136, 136, 136, 136, 136, 136, 136, 136, 136, 136, 136, 136, 136, 136, 136]","[1010, 1010, 1010, 1010, 1010, 1010, 1010, 1010, 1010, 1010, 1007, 1000, 991, 982, 974, 949, 931, 906, 865, 771, 728, 686, 652, 600, 571, 542, 508, 443, 409, 379, 340, 284, 266, 249, 239, 216, 206, 195, 188, 172, 164, 159, 156, 154, 154, 154, 154, 154, 154, 154, 154, 154, 154, 154, 154, 154, 154, 154, 154, 153, 152, 150, 147, 142, 139, 138, 135, 129, 127, 126, 125, 123, 123, 123, 123]"
CHF,TotCHF,final_payoff,sum
"17.5","37.5","[5, 10, 10, 10]","35"
