Condition,PromiseStage,Stage,accuracy,avg_rt,count_decision_sequence,count_loop1,count_trial_sequence,font_size,height,init_time,payoff,response,rt,subject_nr,synth_backend,tTrajectory,time_experiment,width,xTrajectory,yTrajectory
"Promise","Wie oft werden Sie die Hälfte zurückgeben?","Promise","1","undefined","NA","0","0","60","1080","391","NA","1","1526","0","legacy","[11, 21, 31, 41, 51, 61, 71, 81, 91, 101, 111, 121, 131, 141, 151, 161, 171, 181, 191, 201, 211, 221, 231, 241, 251, 261, 271, 281, 291, 301, 311, 321, 331, 341, 351, 361, 371, 381, 391, 401, 411, 421, 431, 441, 451, 461, 471, 481, 491, 501, 511, 521, 531, 541, 551, 561, 571, 581, 591, 601, 611, 621, 631, 641, 651, 661, 671, 681, 691, 701, 711, 721, 731, 741, 751, 761, 771, 781, 791, 801, 811, 821, 831, 841, 851, 861, 871, 881, 891, 901, 911, 921, 931, 941, 951, 961, 971, 981, 991, 1001, 1011, 1021, 1031, 1041, 1051, 1061, 1071, 1081, 1091, 1101, 1111, 1121, 1131, 1141, 1151, 1161, 1171, 1181, 1191, 1201, 1211, 1221, 1231, 1241, 1251, 1261, 1271, 1281, 1291, 1301, 1311, 1321, 1331, 1341, 1351, 1361, 1371, 1381, 1391, 1401, 1411, 1421, 1431, 1441, 1451, 1461, 1471, 1481, 1491, 1501, 1511, 1521]","1085","1920","[960, 960, 960, 960, 960, 960, 960, 960, 960, 960, 960, 960, 960, 960, 960, 960, 960, 960, 960, 960, 960, 960, 960, 960, 960, 960, 960, 960, 960, 960, 960, 960, 960, 960, 960, 962, 968, 976, 1005, 1017, 1032, 1042, 1064, 1071, 1080, 1087, 1100, 1104, 1106, 1108, 1111, 1114, 1116, 1117, 1125, 1131, 1140, 1148, 1176, 1192, 1204, 1219, 1244, 1260, 1276, 1289, 1325, 1341, 1355, 1372, 1402, 1421, 1438, 1456, 1489, 1508, 1518, 1528, 1554, 1564, 1576, 1585, 1605, 1614, 1623, 1631, 1645, 1650, 1655, 1661, 1666, 1668, 1671, 1673, 1675, 1677, 1678, 1678, 1678, 1678, 1678, 1678, 1678, 1678, 1678, 1678, 1681, 1681, 1681, 1681, 1681, 1681, 1681, 1681, 1681, 1682, 1684, 1685, 1686, 1688, 1689, 1690, 1692, 1693, 1693, 1694, 1695, 1696, 1696, 1699, 1700, 1701, 1702, 1703, 1703, 1703, 1703, 1703, 1703, 1703, 1703, 1703, 1703, 1703, 1703, 1703, 1703, 1703, 1703, 1703, 1703, 1703]","[1010, 1010, 1010, 1010, 1010, 1010, 1010, 1010, 1010, 1010, 1010, 1010, 1010, 1010, 1010, 1010, 1010, 1010, 1010, 1010, 1010, 1010, 1010, 1010, 1010, 1010, 1010, 1010, 1010, 1010, 1010, 1010, 1010, 1010, 1007, 1001, 990, 971, 922, 896, 868, 840, 785, 763, 742, 729, 702, 690, 680, 669, 650, 637, 623, 611, 584, 572, 557, 541, 503, 483, 468, 451, 423, 407, 391, 380, 346, 330, 315, 294, 259, 238, 220, 201, 167, 149, 138, 128, 102, 92, 83, 74, 59, 52, 47, 41, 34, 30, 27, 25, 22, 21, 20, 19, 18, 17, 17, 17, 17, 17, 17, 17, 17, 17, 17, 17, 17, 17, 17, 17, 17, 17, 17, 18, 19, 20, 21, 22, 25, 26, 28, 29, 35, 37, 38, 40, 43, 44, 46, 50, 54, 55, 56, 57, 57, 57, 57, 57, 57, 57, 57, 57, 57, 57, 57, 57, 57, 57, 57, 57, 57, 57]"
Cond,DecisionB,Stage,accuracy,avg_rt,count_decision_sequence,count_loop1,count_trial_sequence,font_size,height,init_time,payoff,response,rt,subject_nr,synth_backend,tTrajectory,time_experiment,width,xTrajectory,yTrajectory
"Trust","Teilnehmer A hat Ihnen 2 Punkte übermittelt.","Payback","1","undefined","0","0","0","60","1080","371","5","1","2526","0","legacy","[11, 21, 31, 41, 51, 61, 71, 81, 91, 101, 111, 121, 131, 141, 151, 161, 171, 181, 191, 201, 211, 221, 231, 241, 251, 261, 271, 281, 291, 301, 311, 321, 331, 341, 351, 361, 371, 381, 391, 401, 411, 421, 431, 441, 451, 461, 471, 481, 491, 501, 511, 521, 531, 541, 551, 561, 571, 581, 591, 601, 611, 621, 631, 641, 651, 661, 671, 681, 691, 701, 711, 721, 731, 741, 751, 761, 771, 781, 791, 801, 811, 821, 831, 841, 851, 861, 871, 881, 891, 901, 911, 921, 931, 941, 951, 961, 971, 981, 991, 1001, 1011, 1021, 1031, 1041, 1051, 1061, 1071, 1081, 1091, 1101, 1111, 1121, 1131, 1141, 1151, 1161, 1171, 1181, 1191, 1201, 1211, 1221, 1231, 1241, 1251, 1261, 1271, 1281, 1291, 1301, 1311, 1321, 1331, 1341, 1351, 1361, 1371, 1381, 1391, 1401, 1411, 1421, 1431, 1441, 1451, 1461, 1471, 1481, 1491, 1501, 1511, 1521, 1531, 1541, 1551, 1561, 1571, 1581, 1591, 1601, 1611, 1621, 1631, 1641, 1651, 1661, 1671, 1681, 1691, 1701, 1711, 1721, 1731, 1741, 1751, 1761, 1771, 1781, 1791, 1801, 1811, 1821, 1831, 1841, 1851, 1861, 1871, 1881, 1891, 1901, 1911, 1921, 1931, 1941, 1951, 1961, 1971, 1981, 1991, 2001, 2011, 2021, 2031, 2041, 2051, 2061, 2071, 2081, 2091, 2101, 2111, 2121, 2131, 2141, 2151, 2161, 2171, 2181, 2191, 2201, 2211, 2221, 2231, 2241, 2251, 2261, 2271, 2281, 2291, 2301, 2311, 2321, 2331, 2341, 2351, 2361, 2371, 2381, 2391, 2401, 2411, 2421, 2431, 2441, 2451, 2461, 2471, 2481, 2491, 2501, 2511, 2521]","1085","1920","[960, 960, 960, 960, 960, 960, 960, 960, 960, 960, 960, 960, 960, 960, 960, 960, 960, 960, 960, 960, 960, 960, 962, 963, 965, 965, 968, 971, 971, 971, 973, 974, 975, 976, 978, 979, 980, 981, 981, 981, 983, 983, 985, 985, 988, 988, 990, 992, 994, 995, 998, 999, 999, 1001, 1005, 1009, 1010, 1013, 1018, 1021, 1024, 1026, 1035, 1039, 1042, 1046, 1055, 1059, 1065, 1069, 1076, 1081, 1085, 1087, 1093, 1097, 1098, 1102, 1109, 1112, 1116, 1121, 1131, 1136, 1140, 1143, 1152, 1156, 1162, 1165, 1174, 1178, 1182, 1185, 1193, 1197, 1203, 1208, 1220, 1225, 1231, 1237, 1248, 1253, 1257, 1261, 1271, 1276, 1280, 1286, 1294, 1299, 1303, 1307, 1315, 1317, 1322, 1324, 1329, 1332, 1336, 1340, 1348, 1353, 1357, 1360, 1369, 1373, 1377, 1382, 1391, 1396, 1400, 1402, 1410, 1412, 1415, 1419, 1427, 1431, 1436, 1439, 1448, 1452, 1454, 1459, 1467, 1472, 1479, 1483, 1494, 1501, 1507, 1513, 1529, 1537, 1544, 1554, 1569, 1576, 1584, 1590, 1598, 1601, 1604, 1607, 1611, 1614, 1616, 1618, 1622, 1624, 1626, 1627, 1632, 1636, 1643, 1646, 1652, 1656, 1662, 1665, 1672, 1676, 1680, 1683, 1689, 1692, 1694, 1696, 1698, 1700, 1702, 1703, 1706, 1709, 1710, 1711, 1714, 1714, 1715, 1717, 1718, 1719, 1719, 1719, 1719, 1719, 1719, 1719, 1719, 1719, 1719, 1719, 1719, 1719, 1719, 1719, 1719, 1719, 1719, 1719, 1719, 1719, 1719, 1719, 1719, 1719, 1719, 1719, 1719, 1719, 1719, 1719, 1719, 1719, 1719, 1719, 1719, 1719, 1719, 1719, 1719, 1719, 1719, 1719, 1719, 1719, 1719, 1719, 1719, 1719]","[1010, 1010, 1010, 1010, 1010, 1010, 1010, 1010, 1010, 1010, 1010, 1010, 1010, 1010, 1010, 1010, 1010, 1010, 1010, 1010, 1009, 1007, 1001, 999, 994, 992, 985, 981, 977, 973, 964, 959, 956, 952, 943, 942, 937, 935, 931, 929, 924, 923, 918, 915, 911, 910, 905, 903, 900, 896, 891, 888, 884, 879, 871, 864, 862, 856, 846, 841, 837, 832, 819, 812, 807, 802, 790, 784, 776, 771, 760, 755, 748, 743, 734, 728, 722, 717, 703, 697, 691, 684, 670, 664, 658, 653, 640, 634, 628, 623, 612, 607, 602, 597, 587, 581, 576, 569, 556, 551, 545, 538, 524, 519, 514, 510, 499, 494, 491, 486, 478, 473, 469, 465, 457, 453, 448, 445, 439, 435, 430, 425, 416, 409, 404, 401, 391, 386, 381, 375, 366, 361, 356, 352, 343, 338, 334, 329, 321, 317, 312, 308, 301, 296, 293, 288, 282, 278, 273, 270, 263, 258, 255, 252, 244, 241, 236, 231, 223, 219, 215, 212, 208, 206, 205, 203, 201, 200, 198, 197, 194, 193, 191, 191, 187, 183, 179, 177, 173, 170, 167, 164, 158, 155, 152, 150, 145, 142, 140, 138, 133, 131, 126, 124, 119, 115, 113, 110, 104, 101, 99, 97, 92, 91, 91, 90, 90, 90, 89, 89, 89, 89, 89, 89, 89, 89, 89, 89, 89, 89, 89, 89, 89, 89, 89, 89, 89, 89, 89, 89, 89, 89, 89, 89, 89, 89, 89, 89, 89, 89, 89, 89, 89, 89, 89, 89, 89, 89, 89, 89, 89, 89]"
"Trust","Teilnehmer A hat Ihnen 2 Punkte übermittelt.","Payback","1","undefined","1","0","0","60","1080","431","5","1","2357","0","legacy","[11, 21, 31, 41, 51, 61, 71, 81, 91, 101, 111, 121, 131, 141, 151, 161, 171, 181, 191, 201, 211, 221, 231, 241, 251, 261, 271, 281, 291, 301, 311, 321, 331, 341, 351, 361, 371, 381, 391, 401, 411, 421, 431, 441, 451, 461, 471, 481, 491, 501, 511, 521, 531, 541, 551, 561, 571, 581, 591, 601, 611, 621, 631, 641, 651, 661, 671, 681, 691, 701, 711, 721, 731, 741, 751, 761, 771, 781, 791, 801, 811, 821, 831, 841, 851, 861, 871, 881, 891, 901, 911, 921, 931, 941, 951, 961, 971, 981, 991, 1001, 1011, 1021, 1031, 1041, 1051, 1061, 1071, 1081, 1091, 1101, 1111, 1121, 1131, 1141, 1151, 1161, 1171, 1181, 1191, 1201, 1211, 1221, 1231, 1241, 1251, 1261, 1271, 1281, 1291, 1301, 1311, 1321, 1331, 1341, 1351, 1361, 1371, 1381, 1391, 1401, 1411, 1421, 1431, 1441, 1451, 1461, 1471, 1481, 1491, 1501, 1511, 1521, 1531, 1541, 1551, 1561, 1571, 1581, 1591, 1601, 1611, 1621, 1631, 1641, 1651, 1661, 1671, 1681, 1691, 1701, 1711, 1721, 1731, 1741, 1751, 1761, 1771, 1781, 1791, 1801, 1811, 1821, 1831, 1841, 1851, 1861, 1871, 1881, 1891, 1901, 1911, 1921, 1931, 1941, 1951, 1961, 1971, 1981, 1991, 2001, 2011, 2021, 2031, 2041, 2051, 2061, 2071, 2081, 2091, 2101, 2111, 2121, 2131, 2141, 2151, 2161, 2171, 2181, 2191, 2201, 2211, 2221, 2231, 2241, 2251, 2261, 2271, 2281, 2291, 2301, 2311, 2321, 2331, 2341, 2351]","1085","1920","[960, 960, 960, 960, 960, 960, 960, 960, 960, 960, 960, 960, 960, 960, 960, 960, 960, 960, 960, 960, 960, 960, 960, 961, 961, 961, 961, 962, 962, 963, 963, 964, 965, 966, 968, 969, 970, 971, 975, 976, 977, 978, 980, 983, 983, 985, 993, 997, 998, 1002, 1008, 1013, 1016, 1017, 1022, 1024, 1024, 1025, 1029, 1033, 1034, 1038, 1043, 1045, 1046, 1048, 1051, 1053, 1056, 1059, 1062, 1065, 1068, 1071, 1074, 1076, 1076, 1078, 1079, 1080, 1081, 1082, 1084, 1084, 1086, 1087, 1089, 1090, 1091, 1094, 1098, 1100, 1103, 1106, 1112, 1113, 1116, 1119, 1123, 1125, 1125, 1125, 1128, 1129, 1130, 1131, 1134, 1138, 1140, 1144, 1151, 1156, 1162, 1166, 1177, 1186, 1194, 1201, 1217, 1226, 1233, 1239, 1251, 1258, 1264, 1273, 1287, 1293, 1299, 1304, 1316, 1321, 1326, 1328, 1335, 1338, 1342, 1343, 1348, 1351, 1353, 1356, 1361, 1363, 1366, 1370, 1375, 1380, 1384, 1387, 1395, 1400, 1402, 1406, 1417, 1423, 1428, 1433, 1442, 1447, 1449, 1452, 1458, 1465, 1468, 1472, 1482, 1487, 1492, 1497, 1508, 1512, 1518, 1523, 1539, 1546, 1551, 1557, 1568, 1575, 1577, 1580, 1587, 1591, 1596, 1601, 1611, 1614, 1617, 1620, 1629, 1631, 1635, 1639, 1642, 1649, 1653, 1661, 1676, 1682, 1689, 1696, 1700, 1706, 1713, 1723, 1728, 1733, 1736, 1740, 1743, 1745, 1747, 1750, 1752, 1755, 1759, 1763, 1764, 1766, 1766, 1768, 1769, 1770, 1770, 1770, 1770, 1770, 1770, 1770, 1770, 1770, 1770, 1770, 1770]","[1010, 1010, 1010, 1010, 1010, 1010, 1010, 1010, 1010, 1010, 1010, 1010, 1010, 1010, 1010, 1010, 1010, 1010, 1010, 1010, 1010, 1010, 1010, 1008, 1007, 1006, 1002, 999, 996, 993, 985, 983, 979, 976, 970, 966, 961, 958, 950, 947, 944, 940, 933, 928, 925, 920, 909, 903, 901, 895, 888, 883, 881, 877, 869, 868, 865, 860, 854, 846, 844, 838, 830, 825, 821, 816, 807, 802, 798, 793, 782, 779, 774, 770, 764, 762, 760, 758, 754, 753, 750, 748, 745, 742, 740, 739, 737, 734, 731, 729, 723, 721, 717, 711, 704, 701, 698, 693, 687, 685, 682, 680, 672, 670, 666, 662, 653, 647, 642, 637, 628, 621, 615, 609, 595, 586, 578, 571, 555, 546, 540, 533, 518, 509, 503, 494, 481, 476, 469, 466, 455, 450, 445, 442, 432, 426, 421, 419, 411, 407, 404, 401, 394, 392, 387, 384, 378, 373, 370, 367, 358, 353, 351, 347, 338, 333, 330, 325, 318, 316, 314, 312, 307, 303, 301, 297, 290, 286, 282, 278, 271, 269, 265, 262, 252, 248, 244, 241, 233, 227, 226, 222, 217, 214, 210, 208, 201, 197, 195, 191, 182, 181, 176, 172, 168, 165, 161, 157, 148, 143, 139, 135, 130, 127, 123, 117, 113, 112, 109, 105, 103, 100, 98, 95, 93, 90, 88, 84, 83, 82, 81, 79, 78, 76, 76, 76, 76, 76, 76, 76, 76, 76, 76, 76, 76]"
"NoTrust","Teilnehmer A hat Ihnen keine 2 Punkte übermittelt.","Payback","1","undefined","2","0","0","60","1080","431","0","1","2357","0","legacy","[11, 21, 31, 41, 51, 61, 71, 81, 91, 101, 111, 121, 131, 141, 151, 161, 171, 181, 191, 201, 211, 221, 231, 241, 251, 261, 271, 281, 291, 301, 311, 321, 331, 341, 351, 361, 371, 381, 391, 401, 411, 421, 431, 441, 451, 461, 471, 481, 491, 501, 511, 521, 531, 541, 551, 561, 571, 581, 591, 601, 611, 621, 631, 641, 651, 661, 671, 681, 691, 701, 711, 721, 731, 741, 751, 761, 771, 781, 791, 801, 811, 821, 831, 841, 851, 861, 871, 881, 891, 901, 911, 921, 931, 941, 951, 961, 971, 981, 991, 1001, 1011, 1021, 1031, 1041, 1051, 1061, 1071, 1081, 1091, 1101, 1111, 1121, 1131, 1141, 1151, 1161, 1171, 1181, 1191, 1201, 1211, 1221, 1231, 1241, 1251, 1261, 1271, 1281, 1291, 1301, 1311, 1321, 1331, 1341, 1351, 1361, 1371, 1381, 1391, 1401, 1411, 1421, 1431, 1441, 1451, 1461, 1471, 1481, 1491, 1501, 1511, 1521, 1531, 1541, 1551, 1561, 1571, 1581, 1591, 1601, 1611, 1621, 1631, 1641, 1651, 1661, 1671, 1681, 1691, 1701, 1711, 1721, 1731, 1741, 1751, 1761, 1771, 1781, 1791, 1801, 1811, 1821, 1831, 1841, 1851, 1861, 1871, 1881, 1891, 1901, 1911, 1921, 1931, 1941, 1951, 1961, 1971, 1981, 1991, 2001, 2011, 2021, 2031, 2041, 2051, 2061, 2071, 2081, 2091, 2101, 2111, 2121, 2131, 2141, 2151, 2161, 2171, 2181, 2191, 2201, 2211, 2221, 2231, 2241, 2251, 2261, 2271, 2281, 2291, 2301, 2311, 2321, 2331, 2341, 2351]","1085","1920","[960, 960, 960, 960, 960, 960, 960, 960, 960, 960, 960, 960, 960, 960, 960, 960, 960, 960, 960, 960, 960, 960, 960, 961, 961, 961, 961, 962, 962, 963, 963, 964, 965, 966, 968, 969, 970, 971, 975, 976, 977, 978, 980, 983, 983, 985, 993, 997, 998, 1002, 1008, 1013, 1016, 1017, 1022, 1024, 1024, 1025, 1029, 1033, 1034, 1038, 1043, 1045, 1046, 1048, 1051, 1053, 1056, 1059, 1062, 1065, 1068, 1071, 1074, 1076, 1076, 1078, 1079, 1080, 1081, 1082, 1084, 1084, 1086, 1087, 1089, 1090, 1091, 1094, 1098, 1100, 1103, 1106, 1112, 1113, 1116, 1119, 1123, 1125, 1125, 1125, 1128, 1129, 1130, 1131, 1134, 1138, 1140, 1144, 1151, 1156, 1162, 1166, 1177, 1186, 1194, 1201, 1217, 1226, 1233, 1239, 1251, 1258, 1264, 1273, 1287, 1293, 1299, 1304, 1316, 1321, 1326, 1328, 1335, 1338, 1342, 1343, 1348, 1351, 1353, 1356, 1361, 1363, 1366, 1370, 1375, 1380, 1384, 1387, 1395, 1400, 1402, 1406, 1417, 1423, 1428, 1433, 1442, 1447, 1449, 1452, 1458, 1465, 1468, 1472, 1482, 1487, 1492, 1497, 1508, 1512, 1518, 1523, 1539, 1546, 1551, 1557, 1568, 1575, 1577, 1580, 1587, 1591, 1596, 1601, 1611, 1614, 1617, 1620, 1629, 1631, 1635, 1639, 1642, 1649, 1653, 1661, 1676, 1682, 1689, 1696, 1700, 1706, 1713, 1723, 1728, 1733, 1736, 1740, 1743, 1745, 1747, 1750, 1752, 1755, 1759, 1763, 1764, 1766, 1766, 1768, 1769, 1770, 1770, 1770, 1770, 1770, 1770, 1770, 1770, 1770, 1770, 1770, 1770]","[1010, 1010, 1010, 1010, 1010, 1010, 1010, 1010, 1010, 1010, 1010, 1010, 1010, 1010, 1010, 1010, 1010, 1010, 1010, 1010, 1010, 1010, 1010, 1008, 1007, 1006, 1002, 999, 996, 993, 985, 983, 979, 976, 970, 966, 961, 958, 950, 947, 944, 940, 933, 928, 925, 920, 909, 903, 901, 895, 888, 883, 881, 877, 869, 868, 865, 860, 854, 846, 844, 838, 830, 825, 821, 816, 807, 802, 798, 793, 782, 779, 774, 770, 764, 762, 760, 758, 754, 753, 750, 748, 745, 742, 740, 739, 737, 734, 731, 729, 723, 721, 717, 711, 704, 701, 698, 693, 687, 685, 682, 680, 672, 670, 666, 662, 653, 647, 642, 637, 628, 621, 615, 609, 595, 586, 578, 571, 555, 546, 540, 533, 518, 509, 503, 494, 481, 476, 469, 466, 455, 450, 445, 442, 432, 426, 421, 419, 411, 407, 404, 401, 394, 392, 387, 384, 378, 373, 370, 367, 358, 353, 351, 347, 338, 333, 330, 325, 318, 316, 314, 312, 307, 303, 301, 297, 290, 286, 282, 278, 271, 269, 265, 262, 252, 248, 244, 241, 233, 227, 226, 222, 217, 214, 210, 208, 201, 197, 195, 191, 182, 181, 176, 172, 168, 165, 161, 157, 148, 143, 139, 135, 130, 127, 123, 117, 113, 112, 109, 105, 103, 100, 98, 95, 93, 90, 88, 84, 83, 82, 81, 79, 78, 76, 76, 76, 76, 76, 76, 76, 76, 76, 76, 76, 76]"
"Promise","Wie oft werden Sie die Hälfte zurückgeben?","Promise","0","undefined","2","0","1","60","1080","291","0","2","1560","0","legacy","[11, 21, 31, 41, 51, 61, 71, 81, 91, 101, 111, 121, 131, 141, 151, 161, 171, 181, 191, 201, 211, 221, 231, 241, 251, 261, 271, 281, 291, 301, 311, 321, 331, 341, 351, 361, 371, 381, 391, 401, 411, 421, 431, 441, 451, 461, 471, 481, 491, 501, 511, 521, 531, 541, 551, 561, 571, 581, 591, 601, 611, 621, 631, 641, 651, 661, 671, 681, 691, 701, 711, 721, 731, 741, 751, 761, 771, 781, 791, 801, 811, 821, 831, 841, 851, 861, 871, 881, 891, 901, 911, 921, 931, 941, 951, 961, 971, 981, 991, 1001, 1011, 1021, 1031, 1041, 1051, 1061, 1071, 1081, 1091, 1101, 1111, 1121, 1131, 1141, 1151, 1161, 1171, 1181, 1191, 1201, 1211, 1221, 1231, 1241, 1251, 1261, 1271, 1281, 1291, 1301, 1311, 1321, 1331, 1341, 1351, 1361, 1371, 1381, 1391, 1401, 1411, 1421, 1431, 1441, 1451, 1461, 1471, 1481, 1491, 1501, 1511, 1521, 1531, 1541, 1551]","1085","1920","[960, 960, 960, 960, 960, 960, 960, 960, 960, 960, 960, 960, 960, 960, 960, 960, 957, 956, 954, 949, 947, 943, 939, 931, 927, 920, 914, 902, 889, 875, 862, 836, 829, 823, 818, 810, 804, 803, 798, 790, 786, 780, 775, 766, 762, 759, 755, 744, 740, 733, 725, 711, 705, 699, 694, 684, 679, 674, 670, 658, 654, 648, 640, 620, 613, 606, 600, 592, 589, 585, 582, 575, 571, 566, 561, 548, 543, 537, 530, 523, 520, 515, 512, 502, 495, 490, 483, 468, 461, 454, 448, 437, 433, 430, 425, 414, 409, 403, 395, 380, 372, 363, 354, 338, 331, 323, 318, 308, 302, 298, 293, 283, 278, 273, 269, 257, 254, 249, 245, 240, 234, 229, 225, 216, 211, 206, 201, 193, 191, 188, 187, 186, 186, 186, 186, 186, 186, 186, 186, 186, 186, 186, 186, 186, 186, 186, 186, 186, 186, 186, 186, 186, 186, 186, 186]","[1010, 1010, 1010, 1010, 1010, 1010, 1010, 1010, 1010, 1010, 1010, 1010, 1010, 1010, 1010, 1008, 1006, 1004, 1001, 996, 995, 992, 990, 982, 977, 971, 962, 945, 931, 916, 899, 874, 865, 855, 844, 827, 815, 806, 796, 777, 768, 759, 751, 740, 734, 728, 723, 708, 700, 692, 680, 661, 653, 643, 637, 623, 617, 610, 603, 589, 583, 576, 567, 549, 540, 533, 528, 519, 516, 511, 507, 494, 488, 480, 473, 455, 446, 437, 428, 414, 408, 399, 390, 371, 360, 351, 338, 318, 308, 299, 290, 275, 269, 263, 256, 244, 238, 231, 225, 212, 205, 199, 192, 181, 176, 170, 166, 158, 153, 150, 145, 136, 131, 128, 124, 116, 113, 109, 106, 102, 98, 94, 90, 83, 79, 76, 73, 69, 66, 65, 63, 62, 62, 62, 62, 62, 62, 62, 62, 62, 62, 62, 62, 62, 62, 62, 62, 62, 62, 62, 62, 62, 62, 62, 62]"
"Trust","Teilnehmer A hat Ihnen 2 Punkte übermittelt.","Payback","1","undefined","3","0","1","60","1080","351","5","1","1708","0","legacy","[11, 21, 31, 41, 51, 61, 71, 81, 91, 101, 111, 121, 131, 141, 151, 161, 171, 181, 191, 201, 211, 221, 231, 241, 251, 261, 271, 281, 291, 301, 311, 321, 331, 341, 351, 361, 371, 381, 391, 401, 411, 421, 431, 441, 451, 461, 471, 481, 491, 501, 511, 521, 531, 541, 551, 561, 571, 581, 591, 601, 611, 621, 631, 641, 651, 661, 671, 681, 691, 701, 711, 721, 731, 741, 751, 761, 771, 781, 791, 801, 811, 821, 831, 841, 851, 861, 871, 881, 891, 901, 911, 921, 931, 941, 951, 961, 971, 981, 991, 1001, 1011, 1021, 1031, 1041, 1051, 1061, 1071, 1081, 1091, 1101, 1111, 1121, 1131, 1141, 1151, 1161, 1171, 1181, 1191, 1201, 1211, 1221, 1231, 1241, 1251, 1261, 1271, 1281, 1291, 1301, 1311, 1321, 1331, 1341, 1351, 1361, 1371, 1381, 1391, 1401, 1411, 1421, 1431, 1441, 1451, 1461, 1471, 1481, 1491, 1501, 1511, 1521, 1531, 1541, 1551, 1561, 1571, 1581, 1591, 1601, 1611, 1621, 1631, 1641, 1651, 1661, 1671, 1681, 1691, 1701]","1085","1920","[960, 960, 960, 960, 960, 960, 960, 960, 960, 960, 960, 960, 960, 960, 960, 960, 960, 960, 960, 960, 960, 960, 960, 960, 960, 960, 962, 964, 966, 971, 972, 975, 979, 988, 992, 996, 1003, 1012, 1018, 1024, 1030, 1047, 1057, 1065, 1074, 1093, 1099, 1105, 1112, 1125, 1128, 1134, 1138, 1144, 1146, 1148, 1152, 1156, 1158, 1160, 1162, 1167, 1169, 1172, 1174, 1179, 1182, 1182, 1186, 1193, 1194, 1196, 1200, 1206, 1210, 1214, 1214, 1223, 1226, 1233, 1237, 1250, 1256, 1262, 1268, 1282, 1288, 1294, 1299, 1310, 1315, 1321, 1325, 1339, 1344, 1352, 1357, 1371, 1376, 1383, 1389, 1401, 1406, 1417, 1425, 1453, 1464, 1481, 1492, 1515, 1524, 1535, 1546, 1567, 1577, 1587, 1596, 1614, 1622, 1629, 1634, 1645, 1650, 1655, 1658, 1664, 1666, 1669, 1671, 1676, 1680, 1681, 1682, 1684, 1685, 1686, 1688, 1692, 1695, 1698, 1701, 1709, 1711, 1715, 1718, 1722, 1724, 1726, 1728, 1733, 1733, 1736, 1738, 1740, 1741, 1741, 1741, 1741, 1741, 1741, 1741, 1741, 1741, 1741, 1741, 1741, 1741, 1741, 1741, 1741]","[1010, 1010, 1010, 1010, 1010, 1010, 1010, 1010, 1010, 1010, 1010, 1010, 1010, 1010, 1010, 1010, 1010, 1010, 1010, 1010, 1010, 1010, 1010, 1010, 1009, 1005, 1001, 995, 988, 976, 969, 963, 955, 940, 931, 925, 913, 896, 885, 877, 868, 848, 837, 827, 817, 796, 787, 779, 767, 747, 739, 730, 726, 715, 711, 706, 703, 696, 694, 691, 688, 681, 678, 674, 670, 663, 657, 656, 651, 644, 642, 637, 633, 625, 620, 617, 614, 605, 600, 591, 586, 571, 563, 554, 547, 529, 521, 514, 505, 488, 481, 472, 464, 446, 437, 427, 419, 400, 390, 381, 370, 350, 344, 331, 324, 303, 295, 287, 279, 266, 261, 253, 247, 234, 228, 225, 219, 208, 203, 197, 194, 184, 179, 174, 171, 165, 162, 157, 155, 149, 145, 144, 142, 137, 136, 134, 132, 125, 123, 119, 116, 109, 107, 103, 101, 97, 96, 94, 94, 90, 89, 87, 86, 84, 83, 83, 83, 83, 83, 83, 83, 83, 83, 83, 83, 83, 83, 83, 83, 83]"
"Trust","Teilnehmer A hat Ihnen 2 Punkte übermittelt.","Payback","0","undefined","4","0","1","60","1080","441","10","2","1871","0","legacy","[11, 21, 31, 41, 51, 61, 71, 81, 91, 101, 111, 121, 131, 141, 151, 161, 171, 181, 191, 201, 211, 221, 231, 241, 251, 261, 271, 281, 291, 301, 311, 321, 331, 341, 351, 361, 371, 381, 391, 401, 411, 421, 431, 441, 451, 461, 471, 481, 491, 501, 511, 521, 531, 541, 551, 561, 571, 581, 591, 601, 611, 621, 631, 641, 651, 661, 671, 681, 691, 701, 711, 721, 731, 741, 751, 761, 771, 781, 791, 801, 811, 821, 831, 841, 851, 861, 871, 881, 891, 901, 911, 921, 931, 941, 951, 961, 971, 981, 991, 1001, 1011, 1021, 1031, 1041, 1051, 1061, 1071, 1081, 1091, 1101, 1111, 1121, 1131, 1141, 1151, 1161, 1171, 1181, 1191, 1201, 1211, 1221, 1231, 1241, 1251, 1261, 1271, 1281, 1291, 1301, 1311, 1321, 1331, 1341, 1351, 1361, 1371, 1381, 1391, 1401, 1411, 1421, 1431, 1441, 1451, 1461, 1471, 1481, 1491, 1501, 1511, 1521, 1531, 1541, 1551, 1561, 1571, 1581, 1591, 1601, 1611, 1621, 1631, 1641, 1651, 1661, 1671, 1681, 1691, 1701, 1711, 1721, 1731, 1741, 1751, 1761, 1771, 1781, 1791, 1801, 1811, 1821, 1831, 1841, 1851, 1861]","1085","1920","[960, 960, 960, 960, 960, 960, 960, 960, 960, 960, 960, 960, 960, 960, 960, 960, 960, 960, 960, 960, 960, 960, 960, 960, 960, 960, 958, 955, 952, 952, 952, 948, 948, 948, 948, 948, 948, 947, 945, 944, 941, 940, 939, 935, 933, 931, 928, 923, 920, 920, 918, 915, 914, 913, 911, 908, 905, 903, 901, 896, 894, 891, 889, 883, 882, 877, 874, 872, 870, 869, 869, 867, 865, 864, 862, 858, 854, 849, 846, 839, 835, 830, 825, 814, 807, 802, 795, 782, 777, 772, 767, 756, 753, 747, 743, 733, 729, 726, 722, 717, 713, 708, 703, 694, 688, 681, 676, 663, 655, 650, 642, 625, 615, 606, 581, 568, 558, 548, 524, 515, 506, 497, 485, 480, 471, 463, 446, 436, 425, 415, 394, 384, 377, 370, 357, 351, 345, 341, 330, 324, 318, 313, 303, 298, 294, 290, 281, 277, 271, 265, 251, 245, 237, 231, 221, 217, 214, 212, 210, 209, 209, 209, 209, 209, 209, 209, 208, 208, 208, 208, 208, 208, 208, 208, 208, 208, 208, 208, 208, 208, 208, 208, 208, 208, 208, 208]","[1010, 1010, 1010, 1010, 1010, 1010, 1010, 1010, 1010, 1010, 1010, 1010, 1010, 1010, 1010, 1010, 1010, 1009, 1007, 1006, 1006, 1004, 1002, 1000, 998, 996, 992, 986, 983, 980, 977, 972, 968, 967, 966, 964, 962, 961, 956, 953, 948, 945, 941, 926, 920, 912, 905, 891, 884, 878, 874, 861, 855, 849, 842, 829, 825, 815, 809, 796, 788, 780, 774, 759, 754, 746, 739, 729, 723, 716, 713, 702, 694, 689, 681, 669, 660, 653, 644, 626, 616, 606, 598, 577, 567, 558, 548, 529, 520, 512, 505, 489, 481, 473, 466, 451, 444, 438, 432, 420, 411, 402, 395, 380, 372, 365, 357, 340, 333, 324, 317, 299, 289, 280, 258, 247, 236, 228, 212, 204, 197, 189, 180, 175, 171, 165, 155, 150, 144, 140, 130, 125, 123, 119, 114, 112, 109, 107, 104, 103, 101, 100, 98, 95, 93, 91, 89, 87, 86, 84, 81, 80, 78, 76, 71, 70, 69, 69, 68, 67, 67, 67, 67, 67, 67, 67, 67, 67, 67, 67, 67, 67, 67, 67, 67, 67, 67, 67, 67, 67, 67, 67, 67, 67, 67, 67]"
"Trust","Teilnehmer A hat Ihnen 2 Punkte übermittelt.","Payback","1","undefined","5","0","1","60","1080","341","5","1","2294","0","legacy","[11, 21, 31, 41, 51, 61, 71, 81, 91, 101, 111, 121, 131, 141, 151, 161, 171, 181, 191, 201, 211, 221, 231, 241, 251, 261, 271, 281, 291, 301, 311, 321, 331, 341, 351, 361, 371, 381, 391, 401, 411, 421, 431, 441, 451, 461, 471, 481, 491, 501, 511, 521, 531, 541, 551, 561, 571, 581, 591, 601, 611, 621, 631, 641, 651, 661, 671, 681, 691, 701, 711, 721, 731, 741, 751, 761, 771, 781, 791, 801, 811, 821, 831, 841, 851, 861, 871, 881, 891, 901, 911, 921, 931, 941, 951, 961, 971, 981, 991, 1001, 1011, 1021, 1031, 1041, 1051, 1061, 1071, 1081, 1091, 1101, 1111, 1121, 1131, 1141, 1151, 1161, 1171, 1181, 1191, 1201, 1211, 1221, 1231, 1241, 1251, 1261, 1271, 1281, 1291, 1301, 1311, 1321, 1331, 1341, 1351, 1361, 1371, 1381, 1391, 1401, 1411, 1421, 1431, 1441, 1451, 1461, 1471, 1481, 1491, 1501, 1511, 1521, 1531, 1541, 1551, 1561, 1571, 1581, 1591, 1601, 1611, 1621, 1631, 1641, 1651, 1661, 1671, 1681, 1691, 1701, 1711, 1721, 1731, 1741, 1751, 1761, 1771, 1781, 1791, 1801, 1811, 1821, 1831, 1841, 1851, 1861, 1871, 1881, 1891, 1901, 1911, 1921, 1931, 1941, 1951, 1961, 1971, 1981, 1991, 2001, 2011, 2021, 2031, 2041, 2051, 2061, 2071, 2081, 2091, 2101, 2111, 2121, 2131, 2141, 2151, 2161, 2171, 2181, 2191, 2201, 2211, 2221, 2231, 2241, 2251, 2261, 2271, 2281, 2291]","1085","1920","[960, 960, 960, 960, 960, 960, 960, 960, 960, 960, 960, 960, 960, 960, 960, 960, 960, 960, 960, 960, 960, 960, 960, 960, 960, 960, 960, 960, 960, 960, 960, 960, 960, 960, 960, 959, 957, 956, 952, 952, 952, 952, 954, 957, 958, 962, 968, 969, 972, 973, 975, 977, 978, 979, 982, 983, 985, 987, 988, 991, 992, 993, 994, 997, 999, 1001, 1006, 1008, 1009, 1012, 1016, 1017, 1020, 1021, 1024, 1026, 1030, 1034, 1040, 1045, 1050, 1055, 1064, 1068, 1073, 1079, 1087, 1092, 1097, 1104, 1115, 1120, 1124, 1129, 1137, 1142, 1146, 1151, 1160, 1163, 1165, 1168, 1176, 1179, 1182, 1187, 1195, 1198, 1202, 1206, 1212, 1216, 1220, 1225, 1236, 1245, 1251, 1258, 1273, 1280, 1288, 1295, 1306, 1312, 1316, 1321, 1327, 1329, 1332, 1338, 1345, 1352, 1359, 1365, 1379, 1387, 1393, 1401, 1412, 1420, 1426, 1432, 1443, 1448, 1453, 1460, 1470, 1477, 1481, 1487, 1498, 1506, 1516, 1523, 1544, 1556, 1568, 1579, 1601, 1612, 1619, 1628, 1640, 1645, 1652, 1654, 1661, 1664, 1667, 1668, 1672, 1675, 1678, 1679, 1683, 1686, 1690, 1691, 1694, 1696, 1698, 1699, 1702, 1704, 1706, 1708, 1711, 1713, 1717, 1720, 1724, 1729, 1731, 1736, 1743, 1744, 1747, 1749, 1752, 1752, 1752, 1754, 1756, 1756, 1757, 1757, 1758, 1758, 1758, 1758, 1758, 1758, 1758, 1758, 1758, 1758, 1758, 1758, 1758, 1758, 1758, 1758, 1758, 1758, 1758, 1758, 1758, 1758, 1758]","[1010, 1010, 1010, 1010, 1010, 1010, 1010, 1010, 1010, 1010, 1010, 1010, 1010, 1010, 1010, 1010, 1010, 1010, 1007, 1005, 1003, 1000, 996, 994, 993, 990, 982, 978, 974, 968, 957, 950, 943, 935, 918, 909, 898, 889, 875, 865, 856, 848, 829, 821, 812, 803, 787, 781, 772, 767, 758, 754, 750, 745, 736, 732, 726, 720, 709, 701, 696, 687, 672, 665, 657, 650, 640, 635, 630, 624, 616, 612, 606, 603, 597, 593, 590, 585, 576, 571, 566, 562, 555, 551, 546, 542, 534, 529, 525, 520, 511, 506, 502, 497, 488, 483, 480, 475, 465, 461, 457, 455, 444, 440, 437, 432, 423, 420, 413, 407, 396, 391, 385, 379, 368, 361, 356, 352, 341, 336, 330, 327, 319, 316, 313, 308, 300, 297, 294, 288, 279, 274, 269, 265, 257, 253, 251, 248, 244, 242, 239, 237, 233, 232, 231, 231, 227, 226, 223, 222, 217, 217, 214, 213, 210, 205, 202, 199, 193, 190, 188, 184, 180, 179, 175, 174, 170, 169, 166, 165, 161, 158, 155, 154, 147, 144, 140, 138, 131, 129, 127, 124, 121, 118, 118, 115, 112, 110, 108, 106, 103, 99, 97, 95, 89, 88, 86, 85, 83, 83, 82, 81, 79, 79, 79, 78, 78, 77, 77, 77, 77, 77, 77, 77, 77, 77, 77, 77, 77, 77, 77, 77, 77, 77, 77, 77, 77, 77, 77]"
"Promise","Wie oft werden Sie die Hälfte zurückgeben?","Promise","1","undefined","5","0","2","60","1080","501","5","1","1921","0","legacy","[11, 21, 31, 41, 51, 61, 71, 81, 91, 101, 111, 121, 131, 141, 151, 161, 171, 181, 191, 201, 211, 221, 231, 241, 251, 261, 271, 281, 291, 301, 311, 321, 331, 341, 351, 361, 371, 381, 391, 401, 411, 421, 431, 441, 451, 461, 471, 481, 491, 501, 511, 521, 531, 541, 551, 561, 571, 581, 591, 601, 611, 621, 631, 641, 651, 661, 671, 681, 691, 701, 711, 721, 731, 741, 751, 761, 771, 781, 791, 801, 811, 821, 831, 841, 851, 861, 871, 881, 891, 901, 911, 921, 931, 941, 951, 961, 971, 981, 991, 1001, 1011, 1021, 1031, 1041, 1051, 1061, 1071, 1081, 1091, 1101, 1111, 1121, 1131, 1141, 1151, 1161, 1171, 1181, 1191, 1201, 1211, 1221, 1231, 1241, 1251, 1261, 1271, 1281, 1291, 1301, 1311, 1321, 1331, 1341, 1351, 1361, 1371, 1381, 1391, 1401, 1411, 1421, 1431, 1441, 1451, 1461, 1471, 1481, 1491, 1501, 1511, 1521, 1531, 1541, 1551, 1561, 1571, 1581, 1591, 1601, 1611, 1621, 1631, 1641, 1651, 1661, 1671, 1681, 1691, 1701, 1711, 1721, 1731, 1741, 1751, 1761, 1771, 1781, 1791, 1801, 1811, 1821, 1831, 1841, 1851, 1861, 1871, 1881, 1891, 1901, 1911, 1921]","1085","1920","[960, 960, 960, 960, 960, 960, 960, 960, 960, 960, 960, 960, 960, 960, 960, 960, 960, 960, 960, 960, 960, 960, 960, 960, 960, 960, 960, 960, 960, 960, 960, 960, 960, 959, 958, 957, 955, 953, 953, 953, 951, 951, 950, 950, 950, 950, 950, 950, 950, 951, 952, 957, 962, 963, 963, 965, 967, 969, 971, 974, 982, 989, 993, 1000, 1018, 1024, 1031, 1039, 1051, 1057, 1064, 1071, 1091, 1102, 1120, 1128, 1144, 1151, 1160, 1167, 1182, 1190, 1198, 1206, 1216, 1223, 1228, 1232, 1243, 1248, 1252, 1257, 1270, 1277, 1283, 1291, 1306, 1312, 1320, 1327, 1342, 1350, 1357, 1365, 1377, 1382, 1389, 1395, 1405, 1411, 1418, 1425, 1439, 1447, 1452, 1458, 1469, 1475, 1484, 1490, 1503, 1510, 1516, 1521, 1534, 1539, 1543, 1548, 1559, 1567, 1573, 1579, 1596, 1605, 1614, 1620, 1630, 1634, 1638, 1641, 1650, 1655, 1660, 1665, 1675, 1679, 1686, 1692, 1703, 1706, 1710, 1715, 1722, 1723, 1725, 1729, 1734, 1736, 1737, 1740, 1743, 1744, 1744, 1744, 1744, 1744, 1744, 1744, 1744, 1744, 1744, 1744, 1744, 1744, 1744, 1744, 1744, 1744, 1744, 1744, 1744, 1744, 1744, 1744, 1744, 1744, 1744, 1744, 1744, 1744, 1744, 1744]","[1010, 1010, 1010, 1010, 1010, 1010, 1010, 1010, 1010, 1010, 1010, 1010, 1010, 1010, 1010, 1010, 1010, 1010, 1010, 1010, 1010, 1010, 1010, 1010, 1010, 1010, 1010, 1010, 1010, 1010, 1010, 1010, 1010, 1010, 1010, 1010, 1009, 1008, 1008, 1006, 1001, 997, 993, 988, 978, 973, 964, 959, 948, 939, 933, 925, 914, 908, 904, 899, 890, 883, 877, 869, 854, 842, 832, 822, 797, 784, 771, 760, 734, 721, 708, 695, 664, 647, 627, 615, 592, 580, 570, 559, 534, 523, 511, 501, 485, 476, 468, 461, 446, 438, 432, 427, 413, 408, 401, 395, 382, 377, 371, 364, 352, 346, 341, 337, 326, 321, 316, 312, 304, 300, 296, 290, 282, 278, 274, 270, 261, 255, 250, 246, 237, 233, 229, 224, 215, 212, 208, 204, 197, 194, 192, 189, 179, 173, 167, 164, 155, 151, 147, 146, 138, 134, 133, 129, 122, 118, 114, 110, 103, 99, 96, 93, 89, 88, 86, 84, 80, 79, 78, 77, 74, 74, 74, 74, 74, 74, 74, 74, 74, 74, 74, 74, 74, 74, 74, 74, 74, 74, 74, 74, 74, 74, 74, 74, 74, 74, 74, 74, 74, 74, 74, 74]"
"Trust","Teilnehmer A hat Ihnen 2 Punkte übermittelt.","Payback","1","undefined","6","0","2","60","1080","391","5","1","1749","0","legacy","[11, 21, 31, 41, 51, 61, 71, 81, 91, 101, 111, 121, 131, 141, 151, 161, 171, 181, 191, 201, 211, 221, 231, 241, 251, 261, 271, 281, 291, 301, 311, 321, 331, 341, 351, 361, 371, 381, 391, 401, 411, 421, 431, 441, 451, 461, 471, 481, 491, 501, 511, 521, 531, 541, 551, 561, 571, 581, 591, 601, 611, 621, 631, 641, 651, 661, 671, 681, 691, 701, 711, 721, 731, 741, 751, 761, 771, 781, 791, 801, 811, 821, 831, 841, 851, 861, 871, 881, 891, 901, 911, 921, 931, 941, 951, 961, 971, 981, 991, 1001, 1011, 1021, 1031, 1041, 1051, 1061, 1071, 1081, 1091, 1101, 1111, 1121, 1131, 1141, 1151, 1161, 1171, 1181, 1191, 1201, 1211, 1221, 1231, 1241, 1251, 1261, 1271, 1281, 1291, 1301, 1311, 1321, 1331, 1341, 1351, 1361, 1371, 1381, 1391, 1401, 1411, 1421, 1431, 1441, 1451, 1461, 1471, 1481, 1491, 1501, 1511, 1521, 1531, 1541, 1551, 1561, 1571, 1581, 1591, 1601, 1611, 1621, 1631, 1641, 1651, 1661, 1671, 1681, 1691, 1701, 1711, 1721, 1731, 1741]","1085","1920","[960, 960, 960, 960, 960, 960, 960, 960, 960, 960, 960, 960, 960, 960, 960, 960, 960, 960, 960, 960, 960, 960, 960, 960, 960, 960, 958, 958, 958, 956, 954, 954, 954, 954, 954, 954, 954, 954, 954, 954, 954, 954, 956, 961, 968, 974, 987, 996, 1002, 1008, 1019, 1023, 1026, 1028, 1034, 1038, 1043, 1048, 1061, 1067, 1072, 1075, 1088, 1094, 1099, 1104, 1119, 1127, 1134, 1140, 1150, 1156, 1160, 1163, 1171, 1173, 1177, 1179, 1188, 1191, 1196, 1199, 1211, 1218, 1227, 1235, 1256, 1268, 1280, 1292, 1316, 1331, 1341, 1353, 1371, 1378, 1386, 1393, 1407, 1414, 1421, 1427, 1441, 1447, 1455, 1462, 1477, 1483, 1492, 1502, 1520, 1528, 1535, 1542, 1557, 1564, 1570, 1576, 1587, 1591, 1596, 1601, 1610, 1614, 1618, 1624, 1636, 1645, 1651, 1657, 1676, 1684, 1692, 1699, 1711, 1717, 1721, 1725, 1733, 1734, 1735, 1736, 1742, 1747, 1750, 1753, 1757, 1758, 1759, 1759, 1759, 1759, 1759, 1759, 1759, 1759, 1759, 1759, 1759, 1759, 1759, 1759, 1759, 1759, 1759, 1759, 1759, 1759, 1759, 1759, 1759, 1761, 1761, 1761]","[1010, 1010, 1010, 1010, 1010, 1010, 1010, 1010, 1010, 1010, 1010, 1010, 1010, 1010, 1010, 1010, 1010, 1010, 1010, 1010, 1010, 1010, 1008, 1007, 1005, 1004, 1001, 1001, 998, 995, 988, 984, 977, 973, 962, 956, 949, 944, 930, 922, 912, 901, 880, 868, 859, 850, 834, 825, 818, 812, 798, 792, 787, 782, 773, 768, 762, 757, 744, 736, 730, 725, 709, 703, 692, 686, 668, 657, 647, 638, 622, 611, 604, 597, 581, 574, 562, 556, 538, 529, 519, 509, 491, 481, 471, 462, 442, 432, 423, 413, 394, 382, 374, 366, 349, 342, 335, 326, 308, 299, 290, 281, 262, 252, 243, 232, 215, 208, 199, 192, 179, 173, 168, 165, 155, 150, 146, 142, 136, 134, 131, 128, 123, 122, 120, 117, 112, 109, 106, 103, 96, 92, 89, 85, 82, 80, 77, 75, 73, 72, 72, 72, 70, 68, 68, 68, 67, 66, 66, 66, 66, 66, 66, 66, 66, 66, 66, 66, 66, 66, 66, 66, 66, 66, 66, 66, 66, 66, 66, 66, 66, 65, 65, 65]"
"NoTrust","Teilnehmer A hat Ihnen keine 2 Punkte übermittelt.","Payback","1","undefined","7","0","2","60","1080","391","0","1","1749","0","legacy","[11, 21, 31, 41, 51, 61, 71, 81, 91, 101, 111, 121, 131, 141, 151, 161, 171, 181, 191, 201, 211, 221, 231, 241, 251, 261, 271, 281, 291, 301, 311, 321, 331, 341, 351, 361, 371, 381, 391, 401, 411, 421, 431, 441, 451, 461, 471, 481, 491, 501, 511, 521, 531, 541, 551, 561, 571, 581, 591, 601, 611, 621, 631, 641, 651, 661, 671, 681, 691, 701, 711, 721, 731, 741, 751, 761, 771, 781, 791, 801, 811, 821, 831, 841, 851, 861, 871, 881, 891, 901, 911, 921, 931, 941, 951, 961, 971, 981, 991, 1001, 1011, 1021, 1031, 1041, 1051, 1061, 1071, 1081, 1091, 1101, 1111, 1121, 1131, 1141, 1151, 1161, 1171, 1181, 1191, 1201, 1211, 1221, 1231, 1241, 1251, 1261, 1271, 1281, 1291, 1301, 1311, 1321, 1331, 1341, 1351, 1361, 1371, 1381, 1391, 1401, 1411, 1421, 1431, 1441, 1451, 1461, 1471, 1481, 1491, 1501, 1511, 1521, 1531, 1541, 1551, 1561, 1571, 1581, 1591, 1601, 1611, 1621, 1631, 1641, 1651, 1661, 1671, 1681, 1691, 1701, 1711, 1721, 1731, 1741]","1085","1920","[960, 960, 960, 960, 960, 960, 960, 960, 960, 960, 960, 960, 960, 960, 960, 960, 960, 960, 960, 960, 960, 960, 960, 960, 960, 960, 958, 958, 958, 956, 954, 954, 954, 954, 954, 954, 954, 954, 954, 954, 954, 954, 956, 961, 968, 974, 987, 996, 1002, 1008, 1019, 1023, 1026, 1028, 1034, 1038, 1043, 1048, 1061, 1067, 1072, 1075, 1088, 1094, 1099, 1104, 1119, 1127, 1134, 1140, 1150, 1156, 1160, 1163, 1171, 1173, 1177, 1179, 1188, 1191, 1196, 1199, 1211, 1218, 1227, 1235, 1256, 1268, 1280, 1292, 1316, 1331, 1341, 1353, 1371, 1378, 1386, 1393, 1407, 1414, 1421, 1427, 1441, 1447, 1455, 1462, 1477, 1483, 1492, 1502, 1520, 1528, 1535, 1542, 1557, 1564, 1570, 1576, 1587, 1591, 1596, 1601, 1610, 1614, 1618, 1624, 1636, 1645, 1651, 1657, 1676, 1684, 1692, 1699, 1711, 1717, 1721, 1725, 1733, 1734, 1735, 1736, 1742, 1747, 1750, 1753, 1757, 1758, 1759, 1759, 1759, 1759, 1759, 1759, 1759, 1759, 1759, 1759, 1759, 1759, 1759, 1759, 1759, 1759, 1759, 1759, 1759, 1759, 1759, 1759, 1759, 1761, 1761, 1761]","[1010, 1010, 1010, 1010, 1010, 1010, 1010, 1010, 1010, 1010, 1010, 1010, 1010, 1010, 1010, 1010, 1010, 1010, 1010, 1010, 1010, 1010, 1008, 1007, 1005, 1004, 1001, 1001, 998, 995, 988, 984, 977, 973, 962, 956, 949, 944, 930, 922, 912, 901, 880, 868, 859, 850, 834, 825, 818, 812, 798, 792, 787, 782, 773, 768, 762, 757, 744, 736, 730, 725, 709, 703, 692, 686, 668, 657, 647, 638, 622, 611, 604, 597, 581, 574, 562, 556, 538, 529, 519, 509, 491, 481, 471, 462, 442, 432, 423, 413, 394, 382, 374, 366, 349, 342, 335, 326, 308, 299, 290, 281, 262, 252, 243, 232, 215, 208, 199, 192, 179, 173, 168, 165, 155, 150, 146, 142, 136, 134, 131, 128, 123, 122, 120, 117, 112, 109, 106, 103, 96, 92, 89, 85, 82, 80, 77, 75, 73, 72, 72, 72, 70, 68, 68, 68, 67, 66, 66, 66, 66, 66, 66, 66, 66, 66, 66, 66, 66, 66, 66, 66, 66, 66, 66, 66, 66, 66, 66, 66, 66, 65, 65, 65]"
"Trust","Teilnehmer A hat Ihnen 2 Punkte übermittelt.","Payback","0","undefined","8","0","2","60","1080","291","10","2","1702","0","legacy","[11, 21, 31, 41, 51, 61, 71, 81, 91, 101, 111, 121, 131, 141, 151, 161, 171, 181, 191, 201, 211, 221, 231, 241, 251, 261, 271, 281, 291, 301, 311, 321, 331, 341, 351, 361, 371, 381, 391, 401, 411, 421, 431, 441, 451, 461, 471, 481, 491, 501, 511, 521, 531, 541, 551, 561, 571, 581, 591, 601, 611, 621, 631, 641, 651, 661, 671, 681, 691, 701, 711, 721, 731, 741, 751, 761, 771, 781, 791, 801, 811, 821, 831, 841, 851, 861, 871, 881, 891, 901, 911, 921, 931, 941, 951, 961, 971, 981, 991, 1001, 1011, 1021, 1031, 1041, 1051, 1061, 1071, 1081, 1091, 1101, 1111, 1121, 1131, 1141, 1151, 1161, 1171, 1181, 1191, 1201, 1211, 1221, 1231, 1241, 1251, 1261, 1271, 1281, 1291, 1301, 1311, 1321, 1331, 1341, 1351, 1361, 1371, 1381, 1391, 1401, 1411, 1421, 1431, 1441, 1451, 1461, 1471, 1481, 1491, 1501, 1511, 1521, 1531, 1541, 1551, 1561, 1571, 1581, 1591, 1601, 1611, 1621, 1631, 1641, 1651, 1661, 1671, 1681, 1691, 1701]","1085","1920","[960, 960, 960, 960, 960, 960, 960, 960, 960, 960, 960, 960, 960, 960, 960, 958, 957, 956, 952, 948, 944, 940, 933, 930, 925, 919, 906, 897, 892, 880, 860, 843, 828, 818, 797, 791, 783, 774, 762, 758, 753, 749, 742, 740, 739, 736, 729, 727, 722, 718, 710, 706, 700, 697, 690, 685, 681, 676, 663, 657, 650, 643, 634, 627, 623, 619, 613, 607, 603, 599, 593, 589, 584, 579, 565, 559, 553, 548, 537, 532, 528, 523, 509, 503, 494, 485, 466, 453, 443, 432, 409, 399, 389, 379, 361, 351, 344, 332, 312, 301, 294, 289, 282, 277, 276, 273, 268, 265, 262, 258, 246, 241, 238, 233, 223, 217, 214, 210, 203, 201, 198, 195, 192, 191, 191, 189, 189, 189, 189, 189, 189, 189, 189, 189, 189, 189, 189, 189, 189, 189, 189, 189, 189, 189, 189, 189, 189, 189, 189, 189, 189, 189, 189, 189, 189, 189, 189, 189, 189, 189, 189, 189, 189, 189, 189, 189, 189, 189, 189, 189]","[1010, 1010, 1010, 1010, 1010, 1010, 1010, 1010, 1010, 1010, 1010, 1010, 1010, 1010, 1008, 1007, 1006, 1005, 1002, 999, 997, 994, 988, 984, 979, 973, 957, 948, 938, 924, 891, 869, 849, 832, 794, 775, 756, 736, 701, 685, 670, 654, 628, 615, 603, 592, 571, 559, 551, 541, 521, 513, 503, 496, 480, 470, 464, 454, 434, 426, 416, 407, 392, 382, 376, 368, 357, 350, 344, 336, 327, 322, 313, 307, 295, 289, 283, 278, 267, 264, 259, 253, 241, 236, 232, 226, 215, 207, 202, 198, 187, 184, 180, 174, 168, 163, 160, 158, 151, 147, 142, 141, 136, 133, 132, 130, 125, 123, 120, 118, 111, 109, 107, 105, 100, 97, 97, 94, 91, 90, 88, 87, 85, 85, 85, 84, 84, 84, 84, 84, 84, 84, 84, 83, 83, 83, 83, 83, 83, 83, 83, 83, 83, 83, 83, 83, 83, 83, 83, 83, 83, 83, 83, 83, 83, 83, 83, 83, 83, 83, 83, 83, 83, 83, 83, 83, 83, 83, 83, 83]"
"Promise","Wie oft werden Sie die Hälfte zurückgeben?","Promise","1","undefined","8","0","3","60","1080","291","10","1","1256","0","legacy","[11, 21, 31, 41, 51, 61, 71, 81, 91, 101, 111, 121, 131, 141, 151, 161, 171, 181, 191, 201, 211, 221, 231, 241, 251, 261, 271, 281, 291, 301, 311, 321, 331, 341, 351, 361, 371, 381, 391, 401, 411, 421, 431, 441, 451, 461, 471, 481, 491, 501, 511, 521, 531, 541, 551, 561, 571, 581, 591, 601, 611, 621, 631, 641, 651, 661, 671, 681, 691, 701, 711, 721, 731, 741, 751, 761, 771, 781, 791, 801, 811, 821, 831, 841, 851, 861, 871, 881, 891, 901, 911, 921, 931, 941, 951, 961, 971, 981, 991, 1001, 1011, 1021, 1031, 1041, 1051, 1061, 1071, 1081, 1091, 1101, 1111, 1121, 1131, 1141, 1151, 1161, 1171, 1181, 1191, 1201, 1211, 1221, 1231, 1241, 1251]","1085","1920","[960, 960, 960, 960, 960, 960, 960, 960, 960, 960, 960, 960, 960, 960, 960, 960, 960, 960, 960, 960, 960, 960, 960, 960, 960, 960, 960, 962, 964, 968, 968, 972, 973, 974, 979, 985, 991, 991, 993, 1005, 1015, 1021, 1026, 1039, 1046, 1055, 1068, 1095, 1108, 1122, 1136, 1167, 1179, 1188, 1198, 1220, 1234, 1248, 1265, 1294, 1306, 1315, 1328, 1357, 1368, 1387, 1403, 1442, 1462, 1477, 1504, 1549, 1563, 1579, 1593, 1623, 1633, 1642, 1650, 1664, 1669, 1675, 1679, 1684, 1687, 1689, 1689, 1692, 1692, 1694, 1696, 1703, 1707, 1709, 1715, 1722, 1726, 1732, 1736, 1744, 1748, 1749, 1751, 1752, 1752, 1752, 1752, 1752, 1752, 1752, 1752, 1752, 1752, 1752, 1752, 1752, 1752, 1752, 1752, 1752, 1752, 1752, 1752, 1752, 1752]","[1010, 1010, 1010, 1010, 1010, 1010, 1010, 1010, 1010, 1010, 1010, 1010, 1010, 1010, 1010, 1010, 1008, 1006, 1005, 998, 994, 991, 985, 978, 975, 968, 963, 947, 939, 931, 922, 902, 894, 884, 873, 845, 829, 818, 805, 777, 761, 748, 736, 706, 693, 679, 662, 629, 612, 594, 579, 545, 530, 520, 510, 489, 482, 472, 461, 440, 430, 421, 411, 384, 371, 353, 334, 300, 285, 273, 257, 227, 220, 209, 200, 183, 178, 171, 165, 153, 148, 144, 139, 130, 125, 123, 121, 117, 116, 113, 111, 104, 100, 97, 90, 83, 79, 74, 71, 66, 63, 62, 61, 60, 60, 60, 60, 60, 60, 60, 60, 60, 60, 60, 60, 60, 60, 60, 60, 60, 60, 60, 60, 60, 60]"
"Trust","Teilnehmer A hat Ihnen 2 Punkte übermittelt.","Payback","1","undefined","9","0","3","60","1080","431","5","1","1582","0","legacy","[11, 21, 31, 41, 51, 61, 71, 81, 91, 101, 111, 121, 131, 141, 151, 161, 171, 181, 191, 201, 211, 221, 231, 241, 251, 261, 271, 281, 291, 301, 311, 321, 331, 341, 351, 361, 371, 381, 391, 401, 411, 421, 431, 441, 451, 461, 471, 481, 491, 501, 511, 521, 531, 541, 551, 561, 571, 581, 591, 601, 611, 621, 631, 641, 651, 661, 671, 681, 691, 701, 711, 721, 731, 741, 751, 761, 771, 781, 791, 801, 811, 821, 831, 841, 851, 861, 871, 881, 891, 901, 911, 921, 931, 941, 951, 961, 971, 981, 991, 1001, 1011, 1021, 1031, 1041, 1051, 1061, 1071, 1081, 1091, 1101, 1111, 1121, 1131, 1141, 1151, 1161, 1171, 1181, 1191, 1201, 1211, 1221, 1231, 1241, 1251, 1261, 1271, 1281, 1291, 1301, 1311, 1321, 1331, 1341, 1351, 1361, 1371, 1381, 1391, 1401, 1411, 1421, 1431, 1441, 1451, 1461, 1471, 1481, 1491, 1501, 1511, 1521, 1531, 1541, 1551, 1561, 1571, 1581]","1085","1920","[960, 960, 960, 960, 960, 960, 960, 960, 960, 960, 960, 960, 960, 960, 960, 960, 960, 960, 960, 960, 960, 960, 960, 956, 956, 956, 953, 952, 951, 949, 947, 944, 944, 944, 943, 943, 943, 943, 943, 943, 943, 946, 948, 951, 953, 955, 958, 961, 962, 966, 971, 973, 976, 979, 985, 991, 996, 1001, 1010, 1016, 1021, 1027, 1038, 1044, 1049, 1056, 1069, 1076, 1083, 1091, 1111, 1117, 1128, 1142, 1164, 1183, 1202, 1224, 1250, 1264, 1272, 1287, 1305, 1314, 1323, 1330, 1347, 1354, 1362, 1371, 1387, 1395, 1405, 1413, 1429, 1437, 1445, 1451, 1468, 1476, 1486, 1493, 1512, 1520, 1529, 1539, 1558, 1565, 1572, 1583, 1600, 1609, 1617, 1623, 1634, 1639, 1643, 1648, 1657, 1663, 1670, 1673, 1685, 1691, 1695, 1702, 1710, 1715, 1719, 1724, 1732, 1737, 1739, 1741, 1745, 1748, 1750, 1752, 1757, 1759, 1761, 1763, 1769, 1771, 1772, 1774, 1775, 1775, 1775, 1775, 1775, 1775, 1775, 1775, 1775, 1775, 1775, 1775]","[1010, 1010, 1010, 1010, 1010, 1010, 1010, 1010, 1010, 1010, 1010, 1010, 1010, 1010, 1010, 1010, 1010, 1010, 1010, 1010, 1010, 1010, 1010, 1007, 1007, 1007, 1002, 1001, 999, 995, 988, 986, 984, 981, 974, 971, 967, 963, 955, 952, 947, 941, 929, 923, 917, 911, 890, 880, 869, 860, 842, 836, 825, 815, 790, 779, 769, 757, 737, 726, 715, 703, 683, 676, 666, 657, 640, 633, 625, 617, 601, 595, 588, 578, 564, 552, 542, 530, 514, 505, 499, 489, 475, 469, 463, 458, 445, 438, 432, 425, 409, 403, 395, 388, 373, 366, 361, 356, 340, 332, 323, 317, 301, 294, 286, 278, 261, 255, 249, 242, 228, 222, 215, 210, 199, 194, 190, 184, 176, 171, 166, 162, 152, 145, 142, 134, 124, 118, 113, 108, 98, 93, 91, 87, 82, 79, 77, 74, 69, 66, 64, 62, 54, 52, 51, 49, 47, 47, 47, 47, 47, 47, 47, 47, 47, 47, 47, 47]"
"Trust","Teilnehmer A hat Ihnen 2 Punkte übermittelt.","Payback","1","undefined","10","0","3","60","1080","381","5","1","2031","0","legacy","[11, 21, 31, 41, 51, 61, 71, 81, 91, 101, 111, 121, 131, 141, 151, 161, 171, 181, 191, 201, 211, 221, 231, 241, 251, 261, 271, 281, 291, 301, 311, 321, 331, 341, 351, 361, 371, 381, 391, 401, 411, 421, 431, 441, 451, 461, 471, 481, 491, 501, 511, 521, 531, 541, 551, 561, 571, 581, 591, 601, 611, 621, 631, 641, 651, 661, 671, 681, 691, 701, 711, 721, 731, 741, 751, 761, 771, 781, 791, 801, 811, 821, 831, 841, 851, 861, 871, 881, 891, 901, 911, 921, 931, 941, 951, 961, 971, 981, 991, 1001, 1011, 1021, 1031, 1041, 1051, 1061, 1071, 1081, 1091, 1101, 1111, 1121, 1131, 1141, 1151, 1161, 1171, 1181, 1191, 1201, 1211, 1221, 1231, 1241, 1251, 1261, 1271, 1281, 1291, 1301, 1311, 1321, 1331, 1341, 1351, 1361, 1371, 1381, 1391, 1401, 1411, 1421, 1431, 1441, 1451, 1461, 1471, 1481, 1491, 1501, 1511, 1521, 1531, 1541, 1551, 1561, 1571, 1581, 1591, 1601, 1611, 1621, 1631, 1641, 1651, 1661, 1671, 1681, 1691, 1701, 1711, 1721, 1731, 1741, 1751, 1761, 1771, 1781, 1791, 1801, 1811, 1821, 1831, 1841, 1851, 1861, 1871, 1881, 1891, 1901, 1911, 1921, 1931, 1941, 1951, 1961, 1971, 1981, 1991, 2001, 2011, 2021]","1085","1920","[960, 960, 960, 960, 960, 960, 960, 960, 960, 960, 960, 960, 960, 960, 960, 960, 960, 960, 960, 960, 960, 960, 959, 957, 957, 955, 955, 951, 951, 949, 947, 947, 946, 946, 946, 946, 946, 946, 946, 946, 945, 945, 945, 945, 945, 945, 945, 945, 948, 948, 948, 950, 951, 951, 952, 953, 953, 954, 957, 959, 960, 962, 966, 972, 975, 978, 982, 993, 997, 1003, 1008, 1020, 1025, 1031, 1037, 1048, 1053, 1059, 1064, 1073, 1078, 1086, 1092, 1107, 1113, 1122, 1128, 1140, 1145, 1153, 1160, 1171, 1176, 1182, 1187, 1197, 1202, 1207, 1211, 1221, 1227, 1231, 1238, 1248, 1253, 1258, 1262, 1271, 1276, 1280, 1284, 1291, 1296, 1300, 1303, 1310, 1314, 1318, 1321, 1328, 1332, 1339, 1348, 1354, 1359, 1364, 1376, 1384, 1389, 1398, 1404, 1423, 1431, 1440, 1448, 1466, 1473, 1480, 1484, 1493, 1498, 1502, 1512, 1515, 1519, 1524, 1530, 1535, 1540, 1545, 1556, 1559, 1566, 1570, 1581, 1589, 1595, 1603, 1624, 1634, 1645, 1653, 1669, 1673, 1677, 1682, 1690, 1694, 1702, 1704, 1710, 1713, 1716, 1718, 1727, 1732, 1738, 1742, 1747, 1748, 1749, 1749, 1749, 1749, 1749, 1749, 1749, 1751, 1751, 1751, 1751, 1751, 1752, 1752, 1752, 1752, 1752, 1752, 1752, 1752, 1752, 1752]","[1010, 1010, 1010, 1010, 1010, 1010, 1010, 1010, 1010, 1010, 1010, 1010, 1010, 1010, 1010, 1010, 1010, 1010, 1008, 1005, 1005, 1003, 1001, 996, 996, 992, 991, 985, 982, 979, 974, 969, 965, 960, 956, 948, 943, 939, 936, 929, 927, 924, 921, 916, 916, 914, 912, 910, 906, 905, 902, 895, 893, 889, 886, 877, 874, 871, 865, 858, 853, 847, 840, 826, 819, 810, 804, 789, 782, 774, 766, 753, 747, 740, 734, 720, 714, 708, 702, 689, 683, 674, 665, 647, 641, 630, 623, 610, 602, 594, 586, 573, 568, 561, 552, 539, 533, 527, 521, 507, 499, 493, 486, 473, 467, 461, 456, 446, 441, 436, 431, 424, 417, 414, 409, 401, 396, 392, 388, 377, 372, 364, 354, 347, 342, 335, 324, 316, 311, 302, 296, 280, 272, 266, 259, 243, 237, 230, 227, 219, 215, 210, 203, 199, 197, 193, 186, 183, 181, 176, 168, 165, 161, 158, 151, 147, 145, 142, 134, 128, 123, 117, 110, 108, 105, 104, 101, 99, 95, 94, 92, 90, 89, 88, 86, 83, 81, 80, 78, 77, 77, 77, 77, 77, 77, 77, 77, 75, 75, 75, 75, 75, 75, 75, 75, 75, 75, 75, 75, 75, 75, 75]"
"Trust","Teilnehmer A hat Ihnen 2 Punkte übermittelt.","Payback","1","undefined","11","0","3","60","1080","291","5","1","1165","0","legacy","[11, 21, 31, 41, 51, 61, 71, 81, 91, 101, 111, 121, 131, 141, 151, 161, 171, 181, 191, 201, 211, 221, 231, 241, 251, 261, 271, 281, 291, 301, 311, 321, 331, 341, 351, 361, 371, 381, 391, 401, 411, 421, 431, 441, 451, 461, 471, 481, 491, 501, 511, 521, 531, 541, 551, 561, 571, 581, 591, 601, 611, 621, 631, 641, 651, 661, 671, 681, 691, 701, 711, 721, 731, 741, 751, 761, 771, 781, 791, 801, 811, 821, 831, 841, 851, 861, 871, 881, 891, 901, 911, 921, 931, 941, 951, 961, 971, 981, 991, 1001, 1011, 1021, 1031, 1041, 1051, 1061, 1071, 1081, 1091, 1101, 1111, 1121, 1131, 1141, 1151, 1161]","1085","1920","[960, 960, 960, 960, 960, 960, 960, 960, 960, 960, 960, 960, 960, 960, 960, 960, 960, 960, 960, 962, 962, 964, 964, 967, 971, 974, 986, 998, 1015, 1032, 1081, 1108, 1141, 1179, 1251, 1280, 1310, 1333, 1383, 1402, 1424, 1450, 1507, 1533, 1559, 1584, 1639, 1665, 1697, 1720, 1758, 1771, 1782, 1789, 1798, 1800, 1803, 1805, 1810, 1813, 1815, 1817, 1822, 1822, 1822, 1822, 1822, 1822, 1822, 1822, 1822, 1822, 1822, 1822, 1822, 1822, 1822, 1822, 1822, 1821, 1821, 1820, 1818, 1818, 1817, 1815, 1812, 1809, 1807, 1805, 1802, 1801, 1801, 1800, 1799, 1799, 1798, 1798, 1798, 1798, 1798, 1798, 1798, 1798, 1796, 1796, 1796, 1796, 1796, 1796, 1796, 1796, 1796, 1796, 1796, 1796]","[1010, 1010, 1010, 1010, 1010, 1010, 1010, 1010, 1010, 1010, 1010, 1010, 1010, 1010, 1010, 1010, 1010, 1010, 1007, 1005, 1003, 998, 994, 988, 981, 974, 954, 941, 923, 908, 860, 831, 798, 758, 680, 641, 599, 563, 496, 470, 437, 405, 337, 305, 274, 245, 170, 133, 96, 65, 21, 1, 0, 0, 0, 0, 0, 0, 0, 0, 0, 0, 0, 0, 0, 0, 0, 0, 0, 0, 0, 0, 0, 0, 0, 0, 0, 0, 1, 2, 3, 4, 6, 6, 8, 11, 15, 18, 21, 23, 28, 30, 32, 34, 35, 35, 36, 37, 37, 37, 39, 39, 39, 39, 41, 41, 41, 41, 41, 41, 41, 41, 41, 41, 42, 42]"
"Promise","Wie oft werden Sie die Hälfte zurückgeben?","Promise","0","undefined","11","0","4","60","1080","311","5","2","1400","0","legacy","[11, 21, 31, 41, 51, 61, 71, 81, 91, 101, 111, 121, 131, 141, 151, 161, 171, 181, 191, 201, 211, 221, 231, 241, 251, 261, 271, 281, 291, 301, 311, 321, 331, 341, 351, 361, 371, 381, 391, 401, 411, 421, 431, 441, 451, 461, 471, 481, 491, 501, 511, 521, 531, 541, 551, 561, 571, 581, 591, 601, 611, 621, 631, 641, 651, 661, 671, 681, 691, 701, 711, 721, 731, 741, 751, 761, 771, 781, 791, 801, 811, 821, 831, 841, 851, 861, 871, 881, 891, 901, 911, 921, 931, 941, 951, 961, 971, 981, 991, 1001, 1011, 1021, 1031, 1041, 1051, 1061, 1071, 1081, 1091, 1101, 1111, 1121, 1131, 1141, 1151, 1161, 1171, 1181, 1191, 1201, 1211, 1221, 1231, 1241, 1251, 1261, 1271, 1281, 1291, 1301, 1311, 1321, 1331, 1341, 1351, 1361, 1371, 1381, 1391]","1085","1920","[960, 960, 960, 960, 960, 960, 960, 960, 960, 960, 960, 960, 960, 960, 960, 960, 960, 960, 960, 959, 958, 955, 955, 951, 947, 942, 935, 920, 913, 906, 901, 892, 888, 885, 881, 874, 869, 865, 859, 848, 840, 830, 817, 791, 776, 764, 750, 726, 712, 699, 687, 666, 649, 636, 621, 593, 578, 566, 550, 519, 499, 484, 472, 445, 433, 423, 413, 396, 384, 373, 362, 340, 332, 322, 315, 300, 294, 289, 284, 279, 277, 274, 271, 265, 261, 259, 256, 249, 246, 243, 241, 236, 232, 229, 226, 221, 219, 217, 215, 214, 214, 214, 214, 214, 214, 214, 214, 214, 213, 213, 213, 213, 213, 213, 213, 213, 213, 213, 213, 213, 213, 213, 213, 213, 213, 213, 213, 213, 213, 213, 213, 213, 213, 213, 213, 213, 213, 213, 213]","[1010, 1010, 1010, 1010, 1010, 1010, 1010, 1010, 1010, 1010, 1010, 1010, 1010, 1010, 1010, 1010, 1010, 1010, 1010, 1010, 1009, 1007, 1005, 999, 992, 986, 977, 958, 950, 942, 934, 917, 907, 898, 889, 871, 859, 848, 838, 817, 805, 792, 774, 740, 719, 707, 691, 653, 628, 607, 585, 550, 527, 510, 494, 454, 434, 419, 403, 370, 356, 342, 333, 304, 291, 277, 265, 242, 227, 212, 196, 174, 164, 156, 147, 134, 127, 123, 118, 114, 112, 110, 109, 106, 104, 103, 102, 100, 99, 98, 98, 95, 94, 92, 91, 90, 88, 88, 88, 88, 88, 88, 88, 88, 88, 88, 88, 88, 88, 88, 88, 88, 88, 88, 88, 88, 88, 88, 88, 88, 88, 88, 88, 88, 88, 88, 88, 88, 88, 88, 88, 88, 88, 88, 88, 88, 88, 88, 88]"
"Trust","Teilnehmer A hat Ihnen 2 Punkte übermittelt.","Payback","0","undefined","12","0","4","60","1080","281","10","2","1469","0","legacy","[11, 21, 31, 41, 51, 61, 71, 81, 91, 101, 111, 121, 131, 141, 151, 161, 171, 181, 191, 201, 211, 221, 231, 241, 251, 261, 271, 281, 291, 301, 311, 321, 331, 341, 351, 361, 371, 381, 391, 401, 411, 421, 431, 441, 451, 461, 471, 481, 491, 501, 511, 521, 531, 541, 551, 561, 571, 581, 591, 601, 611, 621, 631, 641, 651, 661, 671, 681, 691, 701, 711, 721, 731, 741, 751, 761, 771, 781, 791, 801, 811, 821, 831, 841, 851, 861, 871, 881, 891, 901, 911, 921, 931, 941, 951, 961, 971, 981, 991, 1001, 1011, 1021, 1031, 1041, 1051, 1061, 1071, 1081, 1091, 1101, 1111, 1121, 1131, 1141, 1151, 1161, 1171, 1181, 1191, 1201, 1211, 1221, 1231, 1241, 1251, 1261, 1271, 1281, 1291, 1301, 1311, 1321, 1331, 1341, 1351, 1361, 1371, 1381, 1391, 1401, 1411, 1421, 1431, 1441, 1451, 1461]","1085","1920","[960, 960, 960, 960, 960, 960, 960, 960, 960, 960, 960, 960, 960, 960, 960, 960, 960, 960, 960, 960, 958, 958, 956, 954, 952, 949, 942, 938, 932, 927, 911, 901, 893, 883, 868, 863, 858, 852, 843, 837, 835, 830, 821, 818, 813, 809, 802, 797, 793, 788, 775, 769, 763, 756, 741, 733, 725, 716, 699, 692, 684, 675, 658, 651, 642, 634, 614, 608, 602, 593, 580, 574, 566, 560, 545, 540, 532, 527, 513, 506, 501, 493, 475, 464, 456, 448, 429, 421, 414, 404, 385, 376, 365, 355, 340, 331, 325, 316, 302, 293, 287, 281, 268, 264, 259, 255, 244, 241, 236, 234, 229, 224, 222, 221, 218, 217, 216, 216, 214, 213, 212, 211, 206, 205, 204, 203, 202, 202, 202, 202, 202, 201, 201, 201, 201, 201, 201, 201, 201, 201, 201, 201, 201, 201, 201, 201]","[1010, 1010, 1010, 1010, 1010, 1010, 1010, 1010, 1010, 1010, 1010, 1010, 1010, 1010, 1010, 1009, 1008, 1008, 1006, 1002, 1000, 999, 990, 985, 979, 970, 952, 939, 925, 910, 879, 863, 849, 830, 799, 787, 775, 759, 734, 721, 711, 697, 677, 668, 658, 650, 635, 626, 619, 610, 592, 584, 576, 567, 549, 540, 531, 522, 501, 494, 485, 473, 457, 448, 441, 432, 412, 405, 399, 391, 381, 375, 368, 363, 352, 347, 342, 337, 328, 322, 318, 311, 302, 295, 289, 285, 274, 268, 264, 258, 245, 238, 233, 227, 216, 210, 206, 199, 187, 181, 173, 167, 156, 151, 146, 141, 133, 130, 126, 123, 119, 115, 114, 113, 110, 110, 109, 109, 107, 106, 105, 104, 102, 100, 100, 99, 98, 98, 98, 98, 98, 98, 98, 98, 98, 98, 98, 98, 98, 98, 98, 98, 98, 98, 98, 98]"
"Trust","Teilnehmer A hat Ihnen 2 Punkte übermittelt.","Payback","1","undefined","13","0","4","60","1080","331","5","1","1228","0","legacy","[11, 21, 31, 41, 51, 61, 71, 81, 91, 101, 111, 121, 131, 141, 151, 161, 171, 181, 191, 201, 211, 221, 231, 241, 251, 261, 271, 281, 291, 301, 311, 321, 331, 341, 351, 361, 371, 381, 391, 401, 411, 421, 431, 441, 451, 461, 471, 481, 491, 501, 511, 521, 531, 541, 551, 561, 571, 581, 591, 601, 611, 621, 631, 641, 651, 661, 671, 681, 691, 701, 711, 721, 731, 741, 751, 761, 771, 781, 791, 801, 811, 821, 831, 841, 851, 861, 871, 881, 891, 901, 911, 921, 931, 941, 951, 961, 971, 981, 991, 1001, 1011, 1021, 1031, 1041, 1051, 1061, 1071, 1081, 1091, 1101, 1111, 1121, 1131, 1141, 1151, 1161, 1171, 1181, 1191, 1201, 1211, 1221]","1085","1920","[960, 960, 960, 960, 960, 960, 960, 960, 960, 960, 960, 960, 960, 960, 960, 960, 960, 960, 960, 960, 960, 960, 960, 960, 960, 962, 962, 962, 964, 968, 971, 973, 977, 986, 996, 1010, 1027, 1057, 1074, 1088, 1102, 1124, 1132, 1138, 1142, 1150, 1155, 1164, 1171, 1190, 1200, 1215, 1228, 1260, 1269, 1282, 1290, 1314, 1323, 1333, 1344, 1365, 1375, 1388, 1400, 1418, 1426, 1433, 1442, 1460, 1471, 1482, 1489, 1507, 1516, 1527, 1539, 1561, 1571, 1581, 1594, 1623, 1635, 1649, 1659, 1681, 1690, 1697, 1706, 1721, 1727, 1732, 1736, 1740, 1741, 1741, 1742, 1745, 1747, 1749, 1750, 1753, 1756, 1758, 1758, 1762, 1765, 1766, 1767, 1770, 1772, 1773, 1774, 1776, 1776, 1776, 1777, 1777, 1777, 1777, 1777, 1777]","[1010, 1010, 1010, 1010, 1010, 1010, 1010, 1010, 1010, 1010, 1010, 1010, 1010, 1010, 1010, 1010, 1010, 1010, 1010, 1010, 1010, 1009, 1009, 1007, 1004, 994, 990, 987, 980, 965, 954, 944, 934, 909, 891, 872, 854, 816, 795, 775, 756, 722, 706, 694, 681, 659, 644, 628, 617, 588, 571, 551, 534, 491, 475, 460, 446, 419, 408, 396, 384, 364, 354, 341, 330, 312, 303, 295, 286, 272, 262, 256, 249, 235, 229, 223, 218, 208, 204, 201, 196, 188, 185, 180, 177, 169, 165, 161, 156, 146, 142, 138, 134, 130, 130, 130, 128, 125, 124, 121, 119, 114, 110, 108, 105, 101, 97, 96, 93, 89, 87, 85, 84, 81, 81, 81, 80, 80, 80, 80, 80, 80]"
"Trust","Teilnehmer A hat Ihnen 2 Punkte übermittelt.","Payback","1","undefined","14","0","4","60","1080","381","5","1","1366","0","legacy","[11, 21, 31, 41, 51, 61, 71, 81, 91, 101, 111, 121, 131, 141, 151, 161, 171, 181, 191, 201, 211, 221, 231, 241, 251, 261, 271, 281, 291, 301, 311, 321, 331, 341, 351, 361, 371, 381, 391, 401, 411, 421, 431, 441, 451, 461, 471, 481, 491, 501, 511, 521, 531, 541, 551, 561, 571, 581, 591, 601, 611, 621, 631, 641, 651, 661, 671, 681, 691, 701, 711, 721, 731, 741, 751, 761, 771, 781, 791, 801, 811, 821, 831, 841, 851, 861, 871, 881, 891, 901, 911, 921, 931, 941, 951, 961, 971, 981, 991, 1001, 1011, 1021, 1031, 1041, 1051, 1061, 1071, 1081, 1091, 1101, 1111, 1121, 1131, 1141, 1151, 1161, 1171, 1181, 1191, 1201, 1211, 1221, 1231, 1241, 1251, 1261, 1271, 1281, 1291, 1301, 1311, 1321, 1331, 1341, 1351, 1361]","1085","1920","[960, 960, 960, 960, 960, 960, 960, 960, 960, 960, 960, 960, 960, 960, 960, 960, 960, 960, 960, 960, 960, 960, 960, 960, 960, 960, 960, 960, 960, 957, 956, 954, 953, 953, 952, 952, 952, 952, 952, 952, 951, 951, 951, 951, 954, 957, 960, 960, 961, 961, 964, 966, 971, 974, 984, 993, 1000, 1006, 1024, 1032, 1040, 1051, 1074, 1085, 1095, 1107, 1135, 1149, 1166, 1181, 1216, 1227, 1245, 1261, 1287, 1302, 1319, 1334, 1365, 1380, 1399, 1413, 1442, 1454, 1465, 1479, 1504, 1512, 1523, 1532, 1552, 1560, 1568, 1577, 1595, 1603, 1611, 1618, 1634, 1642, 1650, 1657, 1668, 1673, 1678, 1682, 1694, 1696, 1700, 1704, 1713, 1715, 1718, 1723, 1732, 1734, 1737, 1741, 1745, 1746, 1749, 1750, 1753, 1754, 1754, 1755, 1755, 1755, 1755, 1755, 1755, 1755, 1755, 1755, 1755, 1755]","[1010, 1010, 1010, 1010, 1010, 1010, 1010, 1010, 1010, 1010, 1010, 1010, 1010, 1010, 1010, 1010, 1010, 1010, 1010, 1010, 1010, 1010, 1010, 1010, 1010, 1008, 1004, 1000, 994, 988, 975, 969, 965, 961, 949, 947, 943, 939, 932, 929, 925, 920, 909, 901, 892, 881, 863, 852, 841, 830, 812, 801, 790, 777, 756, 741, 729, 718, 692, 681, 669, 657, 633, 622, 612, 601, 577, 566, 553, 540, 514, 506, 494, 485, 468, 456, 445, 434, 413, 400, 387, 378, 357, 347, 341, 332, 314, 307, 300, 293, 277, 270, 262, 255, 241, 234, 227, 222, 206, 201, 194, 187, 174, 168, 163, 157, 143, 138, 133, 128, 117, 113, 109, 102, 92, 90, 87, 82, 77, 76, 72, 71, 66, 64, 64, 62, 62, 62, 62, 62, 62, 62, 62, 62, 62, 62]"
"Promise","Wie oft werden Sie die Hälfte zurückgeben?","Promise","0","undefined","14","0","5","60","1080","551","5","2","1791","0","legacy","[11, 21, 31, 41, 51, 61, 71, 81, 91, 101, 111, 121, 131, 141, 151, 161, 171, 181, 191, 201, 211, 221, 231, 241, 251, 261, 271, 281, 291, 301, 311, 321, 331, 341, 351, 361, 371, 381, 391, 401, 411, 421, 431, 441, 451, 461, 471, 481, 491, 501, 511, 521, 531, 541, 551, 561, 571, 581, 591, 601, 611, 621, 631, 641, 651, 661, 671, 681, 691, 701, 711, 721, 731, 741, 751, 761, 771, 781, 791, 801, 811, 821, 831, 841, 851, 861, 871, 881, 891, 901, 911, 921, 931, 941, 951, 961, 971, 981, 991, 1001, 1011, 1021, 1031, 1041, 1051, 1061, 1071, 1081, 1091, 1101, 1111, 1121, 1131, 1141, 1151, 1161, 1171, 1181, 1191, 1201, 1211, 1221, 1231, 1241, 1251, 1261, 1271, 1281, 1291, 1301, 1311, 1321, 1331, 1341, 1351, 1361, 1371, 1381, 1391, 1401, 1411, 1421, 1431, 1441, 1451, 1461, 1471, 1481, 1491, 1501, 1511, 1521, 1531, 1541, 1551, 1561, 1571, 1581, 1591, 1601, 1611, 1621, 1631, 1641, 1651, 1661, 1671, 1681, 1691, 1701, 1711, 1721, 1731, 1741, 1751, 1761, 1771, 1781, 1791]","1085","1920","[960, 960, 960, 960, 960, 960, 960, 960, 960, 960, 960, 960, 960, 960, 960, 960, 960, 960, 960, 960, 960, 960, 960, 960, 960, 960, 960, 960, 960, 960, 960, 960, 960, 960, 960, 960, 960, 960, 960, 960, 960, 960, 960, 960, 960, 960, 960, 960, 960, 961, 961, 961, 961, 960, 955, 944, 940, 935, 931, 924, 919, 914, 912, 904, 900, 896, 891, 882, 879, 875, 869, 858, 853, 849, 846, 842, 842, 840, 840, 836, 834, 828, 823, 806, 798, 790, 782, 767, 760, 753, 747, 733, 731, 728, 725, 723, 722, 721, 720, 717, 716, 714, 712, 704, 700, 697, 694, 682, 674, 668, 662, 655, 653, 650, 649, 648, 647, 643, 642, 630, 621, 614, 605, 585, 572, 559, 545, 511, 490, 466, 443, 393, 375, 362, 348, 324, 312, 302, 294, 274, 266, 256, 250, 237, 231, 226, 224, 215, 211, 207, 204, 197, 194, 190, 185, 180, 179, 178, 178, 176, 176, 176, 175, 175, 175, 175, 175, 175, 175, 175, 175, 175, 175, 175, 175, 175, 175, 175, 175]","[1010, 1010, 1010, 1010, 1010, 1010, 1010, 1010, 1010, 1010, 1010, 1010, 1010, 1010, 1010, 1010, 1010, 1010, 1010, 1010, 1010, 1010, 1010, 1010, 1010, 1010, 1010, 1010, 1010, 1010, 1010, 1010, 1010, 1010, 1010, 1010, 1010, 1010, 1010, 1010, 1010, 1010, 1010, 1010, 1010, 1010, 1010, 1010, 1010, 1008, 1001, 980, 966, 951, 936, 907, 894, 882, 871, 844, 833, 820, 809, 791, 781, 772, 765, 745, 736, 726, 715, 693, 686, 676, 672, 664, 661, 659, 658, 649, 642, 633, 623, 600, 587, 576, 565, 547, 538, 529, 520, 500, 494, 485, 478, 468, 463, 459, 453, 446, 442, 439, 434, 424, 419, 413, 408, 397, 390, 386, 382, 376, 374, 372, 371, 368, 367, 362, 361, 352, 345, 341, 335, 324, 317, 311, 305, 291, 280, 269, 260, 237, 229, 223, 217, 205, 199, 195, 190, 180, 175, 170, 165, 156, 152, 147, 144, 133, 128, 123, 120, 111, 108, 104, 100, 96, 95, 94, 93, 91, 90, 90, 89, 88, 88, 88, 88, 88, 88, 88, 88, 88, 88, 88, 88, 88, 88, 88, 88]"
"Trust","Teilnehmer A hat Ihnen 2 Punkte übermittelt.","Payback","0","undefined","15","0","5","60","1080","311","10","2","1405","0","legacy","[11, 21, 31, 41, 51, 61, 71, 81, 91, 101, 111, 121, 131, 141, 151, 161, 171, 181, 191, 201, 211, 221, 231, 241, 251, 261, 271, 281, 291, 301, 311, 321, 331, 341, 351, 361, 371, 381, 391, 401, 411, 421, 431, 441, 451, 461, 471, 481, 491, 501, 511, 521, 531, 541, 551, 561, 571, 581, 591, 601, 611, 621, 631, 641, 651, 661, 671, 681, 691, 701, 711, 721, 731, 741, 751, 761, 771, 781, 791, 801, 811, 821, 831, 841, 851, 861, 871, 881, 891, 901, 911, 921, 931, 941, 951, 961, 971, 981, 991, 1001, 1011, 1021, 1031, 1041, 1051, 1061, 1071, 1081, 1091, 1101, 1111, 1121, 1131, 1141, 1151, 1161, 1171, 1181, 1191, 1201, 1211, 1221, 1231, 1241, 1251, 1261, 1271, 1281, 1291, 1301, 1311, 1321, 1331, 1341, 1351, 1361, 1371, 1381, 1391, 1401]","1085","1920","[960, 960, 960, 960, 960, 960, 960, 960, 960, 960, 960, 960, 960, 960, 960, 960, 959, 958, 954, 954, 948, 943, 936, 934, 930, 926, 922, 919, 917, 912, 904, 898, 891, 880, 855, 839, 825, 812, 786, 772, 759, 747, 722, 713, 704, 697, 686, 681, 675, 670, 659, 653, 649, 645, 635, 630, 625, 619, 604, 596, 584, 573, 545, 532, 520, 507, 487, 474, 465, 453, 435, 425, 416, 405, 388, 376, 367, 354, 330, 317, 309, 301, 288, 284, 280, 276, 270, 263, 257, 249, 238, 233, 227, 219, 203, 195, 186, 180, 165, 161, 155, 150, 144, 141, 138, 137, 135, 135, 135, 135, 135, 135, 135, 135, 135, 135, 135, 135, 135, 135, 135, 135, 135, 135, 135, 135, 135, 135, 135, 135, 135, 135, 135, 135, 135, 135, 135, 135, 135, 135]","[1010, 1010, 1010, 1010, 1010, 1010, 1010, 1010, 1010, 1010, 1010, 1010, 1010, 1010, 1010, 1010, 1010, 1009, 1003, 1003, 997, 992, 984, 982, 978, 973, 967, 963, 958, 952, 938, 930, 921, 909, 872, 847, 827, 803, 769, 751, 734, 721, 695, 686, 679, 671, 658, 650, 643, 636, 625, 619, 614, 607, 594, 585, 574, 564, 533, 515, 496, 475, 433, 413, 394, 376, 350, 335, 325, 314, 294, 285, 277, 268, 250, 239, 230, 216, 195, 184, 177, 171, 158, 155, 151, 147, 141, 136, 131, 126, 115, 111, 105, 99, 88, 80, 74, 69, 60, 55, 52, 49, 44, 44, 42, 41, 40, 39, 39, 39, 39, 39, 39, 39, 39, 39, 39, 39, 39, 39, 39, 39, 39, 39, 39, 39, 39, 39, 39, 39, 39, 39, 39, 39, 39, 39, 39, 39, 39, 39]"
"NoTrust","Teilnehmer A hat Ihnen keine 2 Punkte übermittelt.","Payback","0","undefined","16","0","5","60","1080","311","0","2","1405","0","legacy","[11, 21, 31, 41, 51, 61, 71, 81, 91, 101, 111, 121, 131, 141, 151, 161, 171, 181, 191, 201, 211, 221, 231, 241, 251, 261, 271, 281, 291, 301, 311, 321, 331, 341, 351, 361, 371, 381, 391, 401, 411, 421, 431, 441, 451, 461, 471, 481, 491, 501, 511, 521, 531, 541, 551, 561, 571, 581, 591, 601, 611, 621, 631, 641, 651, 661, 671, 681, 691, 701, 711, 721, 731, 741, 751, 761, 771, 781, 791, 801, 811, 821, 831, 841, 851, 861, 871, 881, 891, 901, 911, 921, 931, 941, 951, 961, 971, 981, 991, 1001, 1011, 1021, 1031, 1041, 1051, 1061, 1071, 1081, 1091, 1101, 1111, 1121, 1131, 1141, 1151, 1161, 1171, 1181, 1191, 1201, 1211, 1221, 1231, 1241, 1251, 1261, 1271, 1281, 1291, 1301, 1311, 1321, 1331, 1341, 1351, 1361, 1371, 1381, 1391, 1401]","1085","1920","[960, 960, 960, 960, 960, 960, 960, 960, 960, 960, 960, 960, 960, 960, 960, 960, 959, 958, 954, 954, 948, 943, 936, 934, 930, 926, 922, 919, 917, 912, 904, 898, 891, 880, 855, 839, 825, 812, 786, 772, 759, 747, 722, 713, 704, 697, 686, 681, 675, 670, 659, 653, 649, 645, 635, 630, 625, 619, 604, 596, 584, 573, 545, 532, 520, 507, 487, 474, 465, 453, 435, 425, 416, 405, 388, 376, 367, 354, 330, 317, 309, 301, 288, 284, 280, 276, 270, 263, 257, 249, 238, 233, 227, 219, 203, 195, 186, 180, 165, 161, 155, 150, 144, 141, 138, 137, 135, 135, 135, 135, 135, 135, 135, 135, 135, 135, 135, 135, 135, 135, 135, 135, 135, 135, 135, 135, 135, 135, 135, 135, 135, 135, 135, 135, 135, 135, 135, 135, 135, 135]","[1010, 1010, 1010, 1010, 1010, 1010, 1010, 1010, 1010, 1010, 1010, 1010, 1010, 1010, 1010, 1010, 1010, 1009, 1003, 1003, 997, 992, 984, 982, 978, 973, 967, 963, 958, 952, 938, 930, 921, 909, 872, 847, 827, 803, 769, 751, 734, 721, 695, 686, 679, 671, 658, 650, 643, 636, 625, 619, 614, 607, 594, 585, 574, 564, 533, 515, 496, 475, 433, 413, 394, 376, 350, 335, 325, 314, 294, 285, 277, 268, 250, 239, 230, 216, 195, 184, 177, 171, 158, 155, 151, 147, 141, 136, 131, 126, 115, 111, 105, 99, 88, 80, 74, 69, 60, 55, 52, 49, 44, 44, 42, 41, 40, 39, 39, 39, 39, 39, 39, 39, 39, 39, 39, 39, 39, 39, 39, 39, 39, 39, 39, 39, 39, 39, 39, 39, 39, 39, 39, 39, 39, 39, 39, 39, 39, 39]"
"Trust","Teilnehmer A hat Ihnen 2 Punkte übermittelt.","Payback","0","undefined","17","0","5","60","1080","381","10","2","1228","0","legacy","[11, 21, 31, 41, 51, 61, 71, 81, 91, 101, 111, 121, 131, 141, 151, 161, 171, 181, 191, 201, 211, 221, 231, 241, 251, 261, 271, 281, 291, 301, 311, 321, 331, 341, 351, 361, 371, 381, 391, 401, 411, 421, 431, 441, 451, 461, 471, 481, 491, 501, 511, 521, 531, 541, 551, 561, 571, 581, 591, 601, 611, 621, 631, 641, 651, 661, 671, 681, 691, 701, 711, 721, 731, 741, 751, 761, 771, 781, 791, 801, 811, 821, 831, 841, 851, 861, 871, 881, 891, 901, 911, 921, 931, 941, 951, 961, 971, 981, 991, 1001, 1011, 1021, 1031, 1041, 1051, 1061, 1071, 1081, 1091, 1101, 1111, 1121, 1131, 1141, 1151, 1161, 1171, 1181, 1191, 1201, 1211, 1221]","1085","1920","[960, 960, 960, 960, 960, 960, 960, 960, 960, 960, 960, 960, 960, 960, 960, 960, 960, 960, 960, 960, 960, 960, 959, 958, 957, 957, 956, 956, 956, 956, 956, 956, 955, 952, 952, 951, 951, 950, 950, 950, 950, 950, 950, 950, 950, 945, 942, 939, 934, 927, 917, 913, 905, 882, 868, 847, 826, 778, 751, 728, 703, 649, 615, 589, 566, 519, 502, 489, 474, 432, 413, 391, 375, 342, 330, 314, 306, 285, 275, 270, 264, 258, 258, 257, 256, 255, 255, 254, 254, 252, 252, 252, 252, 252, 251, 250, 248, 248, 247, 246, 245, 245, 245, 245, 245, 245, 245, 245, 245, 245, 245, 245, 245, 245, 245, 245, 245, 245, 245, 245, 245, 245]","[1010, 1010, 1010, 1010, 1010, 1010, 1010, 1010, 1010, 1010, 1010, 1010, 1010, 1010, 1010, 1010, 1010, 1010, 1010, 1010, 1010, 1010, 1010, 1008, 1008, 1006, 1003, 1001, 997, 988, 983, 978, 973, 960, 954, 948, 941, 926, 919, 911, 904, 885, 876, 868, 858, 832, 821, 809, 794, 767, 744, 725, 702, 647, 618, 580, 542, 474, 440, 412, 383, 322, 294, 273, 255, 215, 200, 189, 175, 147, 135, 124, 115, 100, 96, 88, 85, 77, 74, 73, 72, 70, 70, 70, 70, 70, 70, 70, 70, 70, 70, 70, 70, 70, 70, 70, 71, 71, 71, 71, 71, 71, 71, 71, 71, 71, 71, 71, 71, 71, 71, 71, 71, 71, 71, 71, 71, 71, 71, 71, 71, 71]"
"Promise","Wie oft werden Sie die Hälfte zurückgeben?","Promise","1","undefined","17","0","6","60","1080","261","10","1","1176","0","legacy","[11, 21, 31, 41, 51, 61, 71, 81, 91, 101, 111, 121, 131, 141, 151, 161, 171, 181, 191, 201, 211, 221, 231, 241, 251, 261, 271, 281, 291, 301, 311, 321, 331, 341, 351, 361, 371, 381, 391, 401, 411, 421, 431, 441, 451, 461, 471, 481, 491, 501, 511, 521, 531, 541, 551, 561, 571, 581, 591, 601, 611, 621, 631, 641, 651, 661, 671, 681, 691, 701, 711, 721, 731, 741, 751, 761, 771, 781, 791, 801, 811, 821, 831, 841, 851, 861, 871, 881, 891, 901, 911, 921, 931, 941, 951, 961, 971, 981, 991, 1001, 1011, 1021, 1031, 1041, 1051, 1061, 1071, 1081, 1091, 1101, 1111, 1121, 1131, 1141, 1151, 1161, 1171]","1085","1920","[960, 960, 960, 960, 960, 960, 960, 960, 960, 960, 960, 960, 960, 960, 959, 958, 957, 957, 956, 954, 953, 952, 952, 952, 952, 957, 959, 968, 975, 980, 988, 1002, 1010, 1017, 1024, 1037, 1044, 1055, 1060, 1072, 1077, 1083, 1088, 1100, 1107, 1115, 1119, 1132, 1144, 1155, 1170, 1197, 1216, 1231, 1245, 1268, 1275, 1282, 1289, 1304, 1312, 1316, 1322, 1335, 1342, 1350, 1358, 1379, 1389, 1398, 1407, 1428, 1437, 1445, 1454, 1471, 1479, 1487, 1494, 1510, 1518, 1528, 1539, 1560, 1572, 1583, 1594, 1615, 1624, 1633, 1638, 1654, 1659, 1666, 1672, 1682, 1685, 1688, 1691, 1695, 1696, 1696, 1696, 1696, 1696, 1696, 1696, 1696, 1696, 1696, 1696, 1696, 1696, 1696, 1696, 1696, 1696]","[1010, 1010, 1010, 1010, 1010, 1010, 1010, 1010, 1010, 1010, 1010, 1010, 1010, 1010, 1008, 1006, 1004, 1003, 1000, 991, 984, 977, 970, 950, 943, 928, 914, 889, 875, 863, 847, 820, 805, 794, 781, 759, 746, 729, 717, 699, 687, 677, 668, 646, 633, 617, 606, 574, 552, 529, 506, 458, 430, 407, 383, 349, 336, 326, 314, 293, 283, 273, 265, 246, 237, 227, 215, 191, 181, 172, 164, 146, 141, 135, 130, 122, 119, 117, 115, 113, 112, 110, 109, 104, 103, 101, 98, 93, 90, 87, 85, 77, 75, 72, 70, 66, 65, 63, 62, 60, 60, 60, 60, 60, 60, 60, 60, 60, 60, 60, 60, 60, 60, 60, 60, 60, 60]"
"Trust","Teilnehmer A hat Ihnen 2 Punkte übermittelt.","Payback","1","undefined","18","0","6","60","1080","331","5","1","1285","0","legacy","[11, 21, 31, 41, 51, 61, 71, 81, 91, 101, 111, 121, 131, 141, 151, 161, 171, 181, 191, 201, 211, 221, 231, 241, 251, 261, 271, 281, 291, 301, 311, 321, 331, 341, 351, 361, 371, 381, 391, 401, 411, 421, 431, 441, 451, 461, 471, 481, 491, 501, 511, 521, 531, 541, 551, 561, 571, 581, 591, 601, 611, 621, 631, 641, 651, 661, 671, 681, 691, 701, 711, 721, 731, 741, 751, 761, 771, 781, 791, 801, 811, 821, 831, 841, 851, 861, 871, 881, 891, 901, 911, 921, 931, 941, 951, 961, 971, 981, 991, 1001, 1011, 1021, 1031, 1041, 1051, 1061, 1071, 1081, 1091, 1101, 1111, 1121, 1131, 1141, 1151, 1161, 1171, 1181, 1191, 1201, 1211, 1221, 1231, 1241, 1251, 1261, 1271, 1281]","1085","1920","[960, 960, 960, 960, 960, 960, 960, 960, 960, 960, 960, 960, 960, 960, 960, 960, 960, 960, 960, 960, 960, 960, 960, 960, 960, 960, 961, 963, 968, 971, 979, 984, 987, 993, 1006, 1013, 1019, 1026, 1040, 1047, 1053, 1056, 1067, 1074, 1081, 1086, 1100, 1105, 1110, 1117, 1128, 1136, 1144, 1151, 1167, 1177, 1189, 1199, 1218, 1230, 1237, 1250, 1266, 1272, 1280, 1286, 1300, 1305, 1312, 1320, 1332, 1338, 1344, 1351, 1364, 1372, 1378, 1386, 1400, 1408, 1416, 1421, 1443, 1450, 1460, 1473, 1493, 1502, 1510, 1517, 1535, 1544, 1556, 1566, 1586, 1596, 1606, 1614, 1632, 1640, 1645, 1649, 1661, 1667, 1671, 1678, 1694, 1698, 1707, 1711, 1721, 1726, 1727, 1731, 1740, 1742, 1744, 1744, 1746, 1746, 1746, 1746, 1746, 1746, 1746, 1746, 1746, 1746]","[1010, 1010, 1010, 1010, 1010, 1010, 1010, 1010, 1010, 1010, 1010, 1010, 1010, 1010, 1010, 1010, 1010, 1010, 1010, 1010, 1010, 1010, 1010, 1010, 1010, 1004, 993, 987, 979, 970, 950, 940, 928, 914, 890, 879, 868, 856, 831, 818, 807, 797, 775, 764, 755, 747, 730, 720, 713, 703, 686, 675, 664, 654, 633, 620, 605, 593, 564, 549, 536, 514, 483, 472, 459, 447, 427, 418, 409, 398, 382, 374, 365, 357, 342, 334, 327, 319, 304, 293, 284, 277, 255, 248, 240, 229, 213, 206, 200, 193, 179, 172, 163, 157, 145, 139, 135, 129, 122, 118, 117, 114, 109, 108, 107, 105, 102, 102, 100, 99, 97, 94, 93, 93, 89, 88, 87, 87, 86, 86, 86, 86, 86, 86, 86, 86, 86, 86]"
"Trust","Teilnehmer A hat Ihnen 2 Punkte übermittelt.","Payback","1","undefined","19","0","6","60","1080","341","5","1","1316","0","legacy","[11, 21, 31, 41, 51, 61, 71, 81, 91, 101, 111, 121, 131, 141, 151, 161, 171, 181, 191, 201, 211, 221, 231, 241, 251, 261, 271, 281, 291, 301, 311, 321, 331, 341, 351, 361, 371, 381, 391, 401, 411, 421, 431, 441, 451, 461, 471, 481, 491, 501, 511, 521, 531, 541, 551, 561, 571, 581, 591, 601, 611, 621, 631, 641, 651, 661, 671, 681, 691, 701, 711, 721, 731, 741, 751, 761, 771, 781, 791, 801, 811, 821, 831, 841, 851, 861, 871, 881, 891, 901, 911, 921, 931, 941, 951, 961, 971, 981, 991, 1001, 1011, 1021, 1031, 1041, 1051, 1061, 1071, 1081, 1091, 1101, 1111, 1121, 1131, 1141, 1151, 1161, 1171, 1181, 1191, 1201, 1211, 1221, 1231, 1241, 1251, 1261, 1271, 1281, 1291, 1301, 1311]","1085","1920","[960, 960, 960, 960, 960, 960, 960, 960, 960, 960, 960, 960, 960, 960, 960, 960, 960, 960, 960, 960, 960, 960, 960, 960, 960, 960, 962, 964, 965, 974, 980, 984, 988, 993, 998, 999, 1003, 1010, 1014, 1020, 1028, 1040, 1046, 1053, 1062, 1081, 1092, 1103, 1115, 1142, 1151, 1162, 1176, 1205, 1221, 1232, 1248, 1271, 1286, 1295, 1305, 1326, 1335, 1346, 1352, 1369, 1378, 1385, 1393, 1410, 1417, 1426, 1434, 1452, 1461, 1469, 1476, 1490, 1496, 1503, 1507, 1520, 1526, 1532, 1538, 1553, 1556, 1562, 1571, 1584, 1592, 1601, 1610, 1622, 1628, 1632, 1637, 1644, 1646, 1648, 1652, 1655, 1661, 1663, 1667, 1674, 1679, 1681, 1684, 1693, 1699, 1705, 1709, 1716, 1719, 1722, 1724, 1728, 1729, 1730, 1730, 1731, 1731, 1731, 1731, 1731, 1731, 1731, 1731, 1731, 1731]","[1010, 1010, 1010, 1010, 1010, 1010, 1010, 1010, 1010, 1010, 1010, 1010, 1010, 1010, 1010, 1010, 1010, 1010, 1010, 1010, 1010, 1010, 1010, 1010, 1010, 1010, 1009, 1005, 998, 975, 962, 951, 941, 921, 910, 901, 891, 866, 854, 842, 827, 796, 780, 765, 744, 702, 681, 657, 638, 599, 585, 568, 553, 519, 504, 491, 475, 453, 438, 428, 418, 398, 389, 381, 374, 360, 352, 345, 336, 320, 312, 303, 296, 278, 270, 263, 257, 246, 242, 237, 235, 228, 225, 221, 217, 209, 207, 201, 196, 187, 181, 176, 171, 163, 159, 155, 152, 146, 145, 142, 140, 134, 129, 127, 124, 119, 115, 113, 109, 105, 100, 97, 96, 90, 88, 87, 86, 83, 83, 82, 82, 82, 82, 82, 82, 82, 82, 82, 82, 82, 82]"
"Trust","Teilnehmer A hat Ihnen 2 Punkte übermittelt.","Payback","0","undefined","20","0","6","60","1080","291","10","2","997","0","legacy","[11, 21, 31, 41, 51, 61, 71, 81, 91, 101, 111, 121, 131, 141, 151, 161, 171, 181, 191, 201, 211, 221, 231, 241, 251, 261, 271, 281, 291, 301, 311, 321, 331, 341, 351, 361, 371, 381, 391, 401, 411, 421, 431, 441, 451, 461, 471, 481, 491, 501, 511, 521, 531, 541, 551, 561, 571, 581, 591, 601, 611, 621, 631, 641, 651, 661, 671, 681, 691, 701, 711, 721, 731, 741, 751, 761, 771, 781, 791, 801, 811, 821, 831, 841, 851, 861, 871, 881, 891, 901, 911, 921, 931, 941, 951, 961, 971, 981, 991]","1085","1920","[960, 960, 960, 960, 960, 960, 960, 960, 960, 960, 960, 960, 960, 960, 960, 960, 960, 960, 960, 960, 960, 959, 952, 946, 940, 932, 911, 898, 880, 859, 824, 810, 795, 784, 739, 710, 686, 661, 611, 587, 568, 550, 523, 512, 501, 492, 475, 464, 450, 440, 421, 412, 405, 400, 387, 381, 377, 373, 364, 358, 351, 343, 329, 322, 316, 307, 289, 281, 272, 262, 242, 231, 221, 210, 191, 187, 180, 176, 168, 167, 166, 165, 165, 165, 165, 165, 165, 165, 165, 165, 165, 165, 165, 165, 165, 165, 165, 165, 165]","[1010, 1010, 1010, 1010, 1010, 1010, 1010, 1010, 1010, 1010, 1010, 1010, 1010, 1010, 1010, 1010, 1010, 1010, 1010, 1010, 1010, 1008, 1002, 997, 993, 986, 967, 954, 939, 918, 877, 857, 833, 806, 725, 685, 645, 606, 516, 470, 429, 387, 318, 292, 271, 250, 214, 197, 182, 171, 152, 144, 139, 135, 125, 123, 121, 120, 118, 116, 115, 114, 113, 111, 110, 109, 105, 102, 99, 98, 95, 94, 93, 90, 85, 83, 81, 80, 77, 77, 76, 76, 76, 76, 76, 76, 76, 76, 76, 76, 76, 76, 76, 76, 76, 76, 76, 76, 76]"
"Promise","Wie oft werden Sie die Hälfte zurückgeben?","Promise","1","undefined","20","0","7","60","1080","341","10","1","1088","0","legacy","[11, 21, 31, 41, 51, 61, 71, 81, 91, 101, 111, 121, 131, 141, 151, 161, 171, 181, 191, 201, 211, 221, 231, 241, 251, 261, 271, 281, 291, 301, 311, 321, 331, 341, 351, 361, 371, 381, 391, 401, 411, 421, 431, 441, 451, 461, 471, 481, 491, 501, 511, 521, 531, 541, 551, 561, 571, 581, 591, 601, 611, 621, 631, 641, 651, 661, 671, 681, 691, 701, 711, 721, 731, 741, 751, 761, 771, 781, 791, 801, 811, 821, 831, 841, 851, 861, 871, 881, 891, 901, 911, 921, 931, 941, 951, 961, 971, 981, 991, 1001, 1011, 1021, 1031, 1041, 1051, 1061, 1071, 1081]","1085","1920","[960, 960, 960, 960, 960, 960, 960, 960, 960, 960, 960, 960, 960, 960, 960, 960, 959, 959, 959, 957, 956, 955, 955, 954, 953, 953, 953, 953, 952, 952, 951, 951, 951, 951, 951, 951, 954, 960, 972, 1003, 1021, 1042, 1059, 1095, 1107, 1129, 1152, 1201, 1224, 1247, 1273, 1333, 1356, 1384, 1406, 1452, 1474, 1488, 1504, 1530, 1540, 1550, 1560, 1579, 1589, 1601, 1611, 1633, 1642, 1653, 1664, 1682, 1691, 1696, 1702, 1708, 1709, 1712, 1712, 1715, 1716, 1716, 1718, 1718, 1718, 1718, 1718, 1718, 1718, 1718, 1718, 1720, 1720, 1723, 1725, 1727, 1728, 1728, 1728, 1728, 1728, 1728, 1728, 1728, 1728, 1728, 1728, 1728]","[1010, 1010, 1010, 1010, 1010, 1010, 1010, 1010, 1010, 1010, 1010, 1010, 1010, 1010, 1010, 1009, 1009, 1006, 1006, 1002, 997, 995, 995, 991, 988, 988, 987, 981, 976, 973, 968, 957, 949, 938, 927, 902, 892, 876, 859, 812, 786, 758, 736, 690, 675, 651, 622, 562, 536, 510, 478, 416, 390, 356, 332, 287, 263, 248, 229, 201, 187, 177, 166, 147, 139, 129, 120, 103, 98, 90, 84, 74, 69, 66, 62, 58, 57, 54, 54, 53, 53, 53, 51, 51, 51, 51, 51, 51, 51, 51, 51, 51, 51, 51, 51, 51, 51, 51, 51, 51, 51, 51, 51, 51, 51, 51, 51, 51]"
"Trust","Teilnehmer A hat Ihnen 2 Punkte übermittelt.","Payback","1","undefined","21","0","7","60","1080","301","5","1","1172","0","legacy","[11, 21, 31, 41, 51, 61, 71, 81, 91, 101, 111, 121, 131, 141, 151, 161, 171, 181, 191, 201, 211, 221, 231, 241, 251, 261, 271, 281, 291, 301, 311, 321, 331, 341, 351, 361, 371, 381, 391, 401, 411, 421, 431, 441, 451, 461, 471, 481, 491, 501, 511, 521, 531, 541, 551, 561, 571, 581, 591, 601, 611, 621, 631, 641, 651, 661, 671, 681, 691, 701, 711, 721, 731, 741, 751, 761, 771, 781, 791, 801, 811, 821, 831, 841, 851, 861, 871, 881, 891, 901, 911, 921, 931, 941, 951, 961, 971, 981, 991, 1001, 1011, 1021, 1031, 1041, 1051, 1061, 1071, 1081, 1091, 1101, 1111, 1121, 1131, 1141, 1151, 1161, 1171]","1085","1920","[960, 960, 960, 960, 960, 960, 960, 960, 960, 960, 960, 960, 960, 960, 960, 960, 960, 960, 960, 960, 960, 959, 959, 959, 959, 957, 957, 957, 957, 957, 959, 962, 968, 984, 987, 997, 1005, 1018, 1023, 1029, 1035, 1046, 1053, 1057, 1063, 1080, 1087, 1097, 1109, 1137, 1155, 1170, 1185, 1216, 1236, 1254, 1275, 1309, 1322, 1337, 1349, 1370, 1382, 1391, 1403, 1427, 1436, 1443, 1451, 1469, 1475, 1482, 1487, 1504, 1512, 1522, 1531, 1548, 1556, 1567, 1578, 1597, 1606, 1615, 1624, 1642, 1651, 1658, 1664, 1677, 1681, 1687, 1693, 1704, 1710, 1716, 1723, 1733, 1737, 1741, 1745, 1752, 1756, 1759, 1761, 1769, 1771, 1773, 1775, 1775, 1775, 1775, 1775, 1776, 1776, 1776, 1776]","[1010, 1010, 1010, 1010, 1010, 1010, 1010, 1010, 1010, 1010, 1010, 1010, 1010, 1010, 1010, 1010, 1010, 1010, 1010, 1010, 1010, 1003, 999, 996, 992, 982, 975, 967, 959, 936, 925, 912, 899, 866, 855, 841, 825, 801, 790, 778, 767, 747, 737, 729, 720, 700, 691, 680, 668, 644, 628, 616, 603, 574, 556, 541, 524, 491, 478, 466, 455, 438, 428, 422, 411, 394, 386, 380, 373, 356, 349, 342, 335, 317, 309, 300, 293, 278, 271, 264, 257, 243, 235, 229, 220, 206, 198, 192, 185, 170, 164, 155, 149, 134, 127, 120, 113, 102, 97, 92, 87, 80, 76, 71, 68, 60, 59, 57, 55, 54, 54, 54, 53, 53, 53, 53, 53]"
"Trust","Teilnehmer A hat Ihnen 2 Punkte übermittelt.","Payback","1","undefined","22","0","7","60","1080","301","5","1","965","0","legacy","[11, 21, 31, 41, 51, 61, 71, 81, 91, 101, 111, 121, 131, 141, 151, 161, 171, 181, 191, 201, 211, 221, 231, 241, 251, 261, 271, 281, 291, 301, 311, 321, 331, 341, 351, 361, 371, 381, 391, 401, 411, 421, 431, 441, 451, 461, 471, 481, 491, 501, 511, 521, 531, 541, 551, 561, 571, 581, 591, 601, 611, 621, 631, 641, 651, 661, 671, 681, 691, 701, 711, 721, 731, 741, 751, 761, 771, 781, 791, 801, 811, 821, 831, 841, 851, 861, 871, 881, 891, 901, 911, 921, 931, 941, 951, 961]","1085","1920","[960, 960, 960, 960, 960, 960, 960, 960, 960, 960, 960, 960, 960, 960, 960, 960, 960, 960, 960, 960, 960, 961, 961, 961, 962, 963, 965, 965, 965, 966, 966, 967, 968, 974, 982, 991, 1002, 1032, 1044, 1058, 1071, 1094, 1106, 1113, 1123, 1147, 1157, 1167, 1181, 1204, 1217, 1235, 1256, 1309, 1335, 1368, 1394, 1453, 1476, 1512, 1537, 1589, 1618, 1637, 1652, 1677, 1692, 1701, 1710, 1728, 1737, 1747, 1753, 1765, 1770, 1773, 1774, 1777, 1778, 1778, 1778, 1779, 1779, 1779, 1779, 1779, 1779, 1779, 1779, 1779, 1779, 1779, 1779, 1779, 1779, 1779]","[1010, 1010, 1010, 1010, 1010, 1010, 1010, 1010, 1010, 1010, 1010, 1010, 1010, 1010, 1010, 1010, 1010, 1010, 1010, 1009, 1006, 998, 997, 994, 989, 978, 970, 964, 956, 939, 930, 921, 910, 884, 865, 845, 821, 769, 748, 725, 701, 658, 639, 619, 600, 568, 550, 535, 516, 486, 469, 450, 431, 383, 361, 339, 318, 277, 259, 236, 220, 190, 174, 164, 152, 137, 129, 123, 118, 109, 103, 98, 94, 87, 84, 82, 81, 78, 77, 77, 77, 76, 75, 75, 75, 75, 75, 75, 75, 75, 75, 75, 75, 75, 75, 75]"
"Trust","Teilnehmer A hat Ihnen 2 Punkte übermittelt.","Payback","1","undefined","23","0","7","60","1080","301","5","1","837","0","legacy","[11, 21, 31, 41, 51, 61, 71, 81, 91, 101, 111, 121, 131, 141, 151, 161, 171, 181, 191, 201, 211, 221, 231, 241, 251, 261, 271, 281, 291, 301, 311, 321, 331, 341, 351, 361, 371, 381, 391, 401, 411, 421, 431, 441, 451, 461, 471, 481, 491, 501, 511, 521, 531, 541, 551, 561, 571, 581, 591, 601, 611, 621, 631, 641, 651, 661, 671, 681, 691, 701, 711, 721, 731, 741, 751, 761, 771, 781, 791, 801, 811, 821, 831]","1085","1920","[960, 960, 960, 960, 960, 960, 960, 960, 960, 960, 960, 960, 960, 960, 960, 960, 960, 960, 960, 960, 960, 960, 960, 960, 961, 966, 970, 973, 982, 989, 1014, 1027, 1046, 1076, 1155, 1200, 1246, 1294, 1386, 1431, 1473, 1511, 1590, 1624, 1645, 1671, 1711, 1725, 1733, 1742, 1756, 1763, 1766, 1769, 1776, 1779, 1781, 1782, 1786, 1789, 1791, 1792, 1796, 1796, 1797, 1797, 1797, 1797, 1797, 1797, 1797, 1797, 1797, 1797, 1794, 1794, 1794, 1794, 1794, 1794, 1794, 1794, 1794]","[1010, 1010, 1010, 1010, 1010, 1010, 1010, 1010, 1010, 1010, 1010, 1010, 1010, 1010, 1010, 1010, 1010, 1010, 1010, 1010, 1010, 1010, 1008, 1003, 997, 989, 970, 958, 943, 929, 893, 876, 850, 821, 742, 702, 661, 619, 549, 517, 482, 449, 383, 357, 340, 317, 279, 261, 250, 235, 214, 203, 193, 184, 168, 161, 153, 146, 131, 124, 117, 111, 100, 96, 90, 87, 80, 77, 76, 75, 73, 73, 73, 72, 69, 69, 69, 69, 69, 69, 69, 69, 69]"
CHF,TotCHF,final_payoff,sum
"12.5","32.5","[5, 5, 5, 10]","25"
