Condition,PromiseStage,Stage,accuracy,avg_rt,count_decision_sequence,count_loop1,count_trial_sequence,font_size,height,init_time,payoff,response,rt,subject_nr,synth_backend,tTrajectory,time_experiment,width,xTrajectory,yTrajectory
"Promise","Wie oft werden Sie die Hälfte zurückgeben?","Promise","1","undefined","NA","0","0","60","1080","231","NA","1","1854","17","legacy","[11, 21, 31, 41, 51, 61, 71, 81, 91, 101, 111, 121, 131, 141, 151, 161, 171, 181, 191, 201, 211, 221, 231, 241, 251, 261, 271, 281, 291, 301, 311, 321, 331, 341, 351, 361, 371, 381, 391, 401, 411, 421, 431, 441, 451, 461, 471, 481, 491, 501, 511, 521, 531, 541, 551, 561, 571, 581, 591, 601, 611, 621, 631, 641, 651, 661, 671, 681, 691, 701, 711, 721, 731, 741, 751, 761, 771, 781, 791, 801, 811, 821, 831, 841, 851, 861, 871, 881, 891, 901, 911, 921, 931, 941, 951, 961, 971, 981, 991, 1001, 1011, 1021, 1031, 1041, 1051, 1061, 1071, 1081, 1091, 1101, 1111, 1121, 1131, 1141, 1151, 1161, 1171, 1181, 1191, 1201, 1211, 1221, 1231, 1241, 1251, 1261, 1271, 1281, 1291, 1301, 1311, 1321, 1331, 1341, 1351, 1361, 1371, 1381, 1391, 1401, 1411, 1421, 1431, 1441, 1451, 1461, 1471, 1481, 1491, 1501, 1511, 1521, 1531, 1541, 1551, 1561, 1571, 1581, 1591, 1601, 1611, 1621, 1631, 1641, 1651, 1661, 1671, 1681, 1691, 1701, 1711, 1721, 1731, 1741, 1751, 1761, 1771, 1781, 1791, 1801, 1811, 1821, 1831, 1841, 1851]","1260","1920","[960, 960, 960, 960, 960, 960, 960, 960, 960, 960, 960, 960, 960, 960, 960, 958, 951, 947, 935, 930, 921, 911, 893, 883, 873, 868, 854, 848, 844, 838, 823, 809, 787, 761, 709, 679, 657, 640, 619, 610, 602, 594, 577, 570, 560, 553, 541, 536, 530, 525, 515, 510, 503, 500, 492, 490, 487, 485, 475, 470, 463, 458, 449, 446, 442, 439, 425, 420, 414, 407, 387, 378, 371, 362, 347, 338, 329, 320, 308, 303, 301, 297, 290, 287, 286, 283, 279, 277, 277, 275, 274, 272, 272, 271, 271, 271, 271, 271, 271, 271, 271, 271, 271, 271, 271, 271, 271, 271, 271, 270, 270, 270, 270, 270, 270, 270, 270, 270, 268, 267, 265, 264, 262, 262, 261, 260, 259, 258, 258, 257, 256, 256, 254, 253, 245, 241, 240, 237, 237, 236, 236, 236, 235, 234, 234, 234, 234, 234, 234, 234, 234, 234, 233, 233, 230, 230, 230, 230, 229, 229, 229, 229, 227, 226, 226, 226, 226, 226, 225, 225, 225, 225, 224, 224, 224, 224, 224, 224, 224, 224, 224, 224, 224, 224, 224]","[1010, 1010, 1010, 1010, 1010, 1010, 1010, 1010, 1010, 1010, 1010, 1010, 1010, 1010, 1007, 1000, 989, 980, 966, 961, 953, 945, 936, 930, 923, 919, 909, 904, 900, 892, 872, 852, 819, 772, 687, 643, 610, 585, 556, 542, 532, 521, 498, 488, 474, 463, 443, 435, 427, 421, 409, 404, 396, 391, 380, 373, 368, 362, 343, 335, 326, 317, 308, 303, 300, 296, 288, 284, 279, 272, 257, 250, 244, 239, 227, 221, 215, 210, 204, 201, 200, 196, 192, 189, 188, 186, 183, 181, 181, 180, 180, 178, 178, 177, 177, 177, 177, 177, 177, 177, 177, 177, 177, 177, 177, 177, 177, 177, 177, 177, 177, 177, 177, 177, 177, 177, 177, 177, 177, 174, 172, 170, 168, 167, 167, 166, 166, 166, 165, 165, 164, 162, 161, 159, 153, 150, 149, 148, 148, 147, 147, 147, 147, 147, 146, 146, 146, 146, 146, 146, 146, 145, 144, 144, 142, 142, 142, 141, 141, 141, 140, 140, 138, 136, 136, 136, 136, 135, 135, 135, 133, 133, 133, 133, 133, 133, 133, 133, 133, 133, 133, 133, 133, 133, 133]"


"NoTrust","Teilnehmer A hat Ihnen keine 2 Punkte übermittelt.","Payback","1","undefined","0","0","0","60","1080","231","0","1","1854","17","legacy","[11, 21, 31, 41, 51, 61, 71, 81, 91, 101, 111, 121, 131, 141, 151, 161, 171, 181, 191, 201, 211, 221, 231, 241, 251, 261, 271, 281, 291, 301, 311, 321, 331, 341, 351, 361, 371, 381, 391, 401, 411, 421, 431, 441, 451, 461, 471, 481, 491, 501, 511, 521, 531, 541, 551, 561, 571, 581, 591, 601, 611, 621, 631, 641, 651, 661, 671, 681, 691, 701, 711, 721, 731, 741, 751, 761, 771, 781, 791, 801, 811, 821, 831, 841, 851, 861, 871, 881, 891, 901, 911, 921, 931, 941, 951, 961, 971, 981, 991, 1001, 1011, 1021, 1031, 1041, 1051, 1061, 1071, 1081, 1091, 1101, 1111, 1121, 1131, 1141, 1151, 1161, 1171, 1181, 1191, 1201, 1211, 1221, 1231, 1241, 1251, 1261, 1271, 1281, 1291, 1301, 1311, 1321, 1331, 1341, 1351, 1361, 1371, 1381, 1391, 1401, 1411, 1421, 1431, 1441, 1451, 1461, 1471, 1481, 1491, 1501, 1511, 1521, 1531, 1541, 1551, 1561, 1571, 1581, 1591, 1601, 1611, 1621, 1631, 1641, 1651, 1661, 1671, 1681, 1691, 1701, 1711, 1721, 1731, 1741, 1751, 1761, 1771, 1781, 1791, 1801, 1811, 1821, 1831, 1841, 1851]","1260","1920","[960, 960, 960, 960, 960, 960, 960, 960, 960, 960, 960, 960, 960, 960, 960, 958, 951, 947, 935, 930, 921, 911, 893, 883, 873, 868, 854, 848, 844, 838, 823, 809, 787, 761, 709, 679, 657, 640, 619, 610, 602, 594, 577, 570, 560, 553, 541, 536, 530, 525, 515, 510, 503, 500, 492, 490, 487, 485, 475, 470, 463, 458, 449, 446, 442, 439, 425, 420, 414, 407, 387, 378, 371, 362, 347, 338, 329, 320, 308, 303, 301, 297, 290, 287, 286, 283, 279, 277, 277, 275, 274, 272, 272, 271, 271, 271, 271, 271, 271, 271, 271, 271, 271, 271, 271, 271, 271, 271, 271, 270, 270, 270, 270, 270, 270, 270, 270, 270, 268, 267, 265, 264, 262, 262, 261, 260, 259, 258, 258, 257, 256, 256, 254, 253, 245, 241, 240, 237, 237, 236, 236, 236, 235, 234, 234, 234, 234, 234, 234, 234, 234, 234, 233, 233, 230, 230, 230, 230, 229, 229, 229, 229, 227, 226, 226, 226, 226, 226, 225, 225, 225, 225, 224, 224, 224, 224, 224, 224, 224, 224, 224, 224, 224, 224, 224]","[1010, 1010, 1010, 1010, 1010, 1010, 1010, 1010, 1010, 1010, 1010, 1010, 1010, 1010, 1007, 1000, 989, 980, 966, 961, 953, 945, 936, 930, 923, 919, 909, 904, 900, 892, 872, 852, 819, 772, 687, 643, 610, 585, 556, 542, 532, 521, 498, 488, 474, 463, 443, 435, 427, 421, 409, 404, 396, 391, 380, 373, 368, 362, 343, 335, 326, 317, 308, 303, 300, 296, 288, 284, 279, 272, 257, 250, 244, 239, 227, 221, 215, 210, 204, 201, 200, 196, 192, 189, 188, 186, 183, 181, 181, 180, 180, 178, 178, 177, 177, 177, 177, 177, 177, 177, 177, 177, 177, 177, 177, 177, 177, 177, 177, 177, 177, 177, 177, 177, 177, 177, 177, 177, 177, 174, 172, 170, 168, 167, 167, 166, 166, 166, 165, 165, 164, 162, 161, 159, 153, 150, 149, 148, 148, 147, 147, 147, 147, 147, 146, 146, 146, 146, 146, 146, 146, 145, 144, 144, 142, 142, 142, 141, 141, 141, 140, 140, 138, 136, 136, 136, 136, 135, 135, 135, 133, 133, 133, 133, 133, 133, 133, 133, 133, 133, 133, 133, 133, 133, 133]"
"Trust","Teilnehmer A hat Ihnen 2 Punkte übermittelt.","Payback","1","undefined","1","0","0","60","1080","421","5","1","1814","17","legacy","[11, 21, 31, 41, 51, 61, 71, 81, 91, 101, 111, 121, 131, 141, 151, 161, 171, 181, 191, 201, 211, 221, 231, 241, 251, 261, 271, 281, 291, 301, 311, 321, 331, 341, 351, 361, 371, 381, 391, 401, 411, 421, 431, 441, 451, 461, 471, 481, 491, 501, 511, 521, 531, 541, 551, 561, 571, 581, 591, 601, 611, 621, 631, 641, 651, 661, 671, 681, 691, 701, 711, 721, 731, 741, 751, 761, 771, 781, 791, 801, 811, 821, 831, 841, 851, 861, 871, 881, 891, 901, 911, 921, 931, 941, 951, 961, 971, 981, 991, 1001, 1011, 1021, 1031, 1041, 1051, 1061, 1071, 1081, 1091, 1101, 1111, 1121, 1131, 1141, 1151, 1161, 1171, 1181, 1191, 1201, 1211, 1221, 1231, 1241, 1251, 1261, 1271, 1281, 1291, 1301, 1311, 1321, 1331, 1341, 1351, 1361, 1371, 1381, 1391, 1401, 1411, 1421, 1431, 1441, 1451, 1461, 1471, 1481, 1491, 1501, 1511, 1521, 1531, 1541, 1551, 1561, 1571, 1581, 1591, 1601, 1611, 1621, 1631, 1641, 1651, 1661, 1671, 1681, 1691, 1701, 1711, 1721, 1731, 1741, 1751, 1761, 1771, 1781, 1791, 1801, 1811]","1260","1920","[960, 960, 960, 960, 960, 960, 960, 960, 960, 960, 960, 960, 960, 960, 960, 960, 960, 960, 960, 960, 960, 960, 960, 960, 960, 960, 960, 960, 960, 960, 960, 960, 960, 960, 960, 957, 949, 937, 914, 903, 894, 888, 880, 875, 871, 867, 860, 857, 855, 854, 853, 853, 853, 853, 853, 853, 852, 852, 850, 849, 847, 844, 836, 830, 823, 816, 793, 780, 767, 752, 728, 716, 706, 701, 695, 693, 693, 692, 688, 686, 685, 684, 681, 681, 680, 677, 671, 666, 660, 654, 639, 632, 624, 615, 602, 598, 594, 592, 586, 583, 583, 580, 576, 575, 572, 570, 565, 562, 560, 556, 549, 542, 534, 527, 513, 506, 500, 496, 488, 483, 478, 473, 463, 457, 452, 450, 442, 440, 436, 432, 427, 423, 422, 418, 410, 405, 400, 393, 383, 378, 374, 371, 360, 355, 351, 346, 338, 335, 333, 331, 327, 326, 326, 324, 322, 320, 318, 316, 313, 308, 303, 296, 281, 278, 274, 270, 264, 262, 259, 258, 255, 255, 254, 254, 253, 253, 253, 253, 253, 253, 253]","[1010, 1010, 1010, 1010, 1010, 1010, 1010, 1010, 1010, 1010, 1010, 1010, 1010, 1010, 1010, 1010, 1010, 1010, 1010, 1010, 1010, 1010, 1010, 1010, 1010, 1010, 1010, 1010, 1010, 1010, 1010, 1010, 1010, 1010, 1010, 1009, 1003, 992, 968, 957, 947, 939, 928, 923, 918, 913, 906, 901, 900, 898, 897, 897, 897, 897, 897, 897, 896, 895, 891, 890, 888, 883, 870, 861, 851, 841, 810, 790, 773, 748, 714, 695, 678, 670, 657, 654, 653, 648, 642, 638, 635, 633, 626, 623, 621, 615, 606, 597, 589, 579, 559, 550, 540, 531, 513, 508, 501, 497, 488, 483, 480, 475, 467, 465, 460, 454, 441, 435, 432, 426, 411, 399, 390, 379, 360, 348, 338, 328, 311, 304, 296, 287, 271, 262, 255, 251, 240, 237, 232, 226, 218, 211, 209, 202, 189, 183, 176, 169, 156, 151, 148, 145, 136, 132, 130, 126, 121, 118, 117, 114, 113, 111, 111, 111, 110, 109, 109, 107, 106, 104, 102, 100, 96, 95, 93, 92, 90, 89, 89, 88, 88, 88, 88, 88, 86, 86, 86, 86, 86, 86, 86]"
"Trust","Teilnehmer A hat Ihnen 2 Punkte übermittelt.","Payback","0","undefined","2","0","0","60","1080","321","10","2","1456","17","legacy","[11, 21, 31, 41, 51, 61, 71, 81, 91, 101, 111, 121, 131, 141, 151, 161, 171, 181, 191, 201, 211, 221, 231, 241, 251, 261, 271, 281, 291, 301, 311, 321, 331, 341, 351, 361, 371, 381, 391, 401, 411, 421, 431, 441, 451, 461, 471, 481, 491, 501, 511, 521, 531, 541, 551, 561, 571, 581, 591, 601, 611, 621, 631, 641, 651, 661, 671, 681, 691, 701, 711, 721, 731, 741, 751, 761, 771, 781, 791, 801, 811, 821, 831, 841, 851, 861, 871, 881, 891, 901, 911, 921, 931, 941, 951, 961, 971, 981, 991, 1001, 1011, 1021, 1031, 1041, 1051, 1061, 1071, 1081, 1091, 1101, 1111, 1121, 1131, 1141, 1151, 1161, 1171, 1181, 1191, 1201, 1211, 1221, 1231, 1241, 1251, 1261, 1271, 1281, 1291, 1301, 1311, 1321, 1331, 1341, 1351, 1361, 1371, 1381, 1391, 1401, 1411, 1421, 1431, 1441, 1451]","1260","1920","[960, 960, 960, 960, 960, 960, 960, 960, 960, 960, 960, 960, 960, 960, 960, 960, 960, 960, 960, 960, 960, 960, 960, 966, 975, 984, 998, 1031, 1053, 1077, 1093, 1115, 1122, 1125, 1130, 1136, 1136, 1138, 1140, 1151, 1156, 1165, 1171, 1184, 1190, 1199, 1206, 1223, 1227, 1231, 1235, 1244, 1246, 1250, 1256, 1264, 1269, 1274, 1279, 1295, 1304, 1313, 1325, 1354, 1366, 1383, 1394, 1416, 1428, 1437, 1446, 1460, 1469, 1476, 1481, 1490, 1492, 1496, 1502, 1509, 1512, 1516, 1519, 1530, 1535, 1539, 1544, 1555, 1563, 1568, 1575, 1585, 1589, 1593, 1597, 1608, 1611, 1615, 1620, 1625, 1626, 1629, 1630, 1634, 1637, 1640, 1641, 1645, 1646, 1649, 1650, 1653, 1655, 1657, 1659, 1664, 1665, 1666, 1669, 1673, 1674, 1675, 1677, 1678, 1681, 1682, 1682, 1684, 1685, 1686, 1689, 1690, 1691, 1694, 1694, 1694, 1695, 1695, 1695, 1695, 1695, 1695, 1695, 1695, 1695]","[1010, 1010, 1010, 1010, 1010, 1010, 1010, 1010, 1010, 1010, 1010, 1010, 1010, 1010, 1010, 1010, 1010, 1010, 1010, 1010, 1010, 1010, 1010, 1008, 1005, 1002, 997, 976, 964, 951, 942, 929, 925, 923, 920, 917, 917, 914, 911, 897, 887, 874, 863, 846, 841, 834, 830, 820, 816, 813, 809, 799, 797, 793, 786, 780, 775, 769, 764, 751, 742, 733, 722, 694, 685, 674, 667, 649, 638, 631, 622, 604, 592, 584, 578, 567, 562, 554, 546, 533, 528, 520, 514, 493, 483, 474, 463, 436, 421, 409, 399, 378, 368, 359, 348, 325, 317, 305, 297, 278, 271, 264, 258, 246, 243, 237, 232, 219, 213, 206, 200, 189, 184, 177, 170, 158, 153, 150, 145, 137, 133, 130, 127, 122, 118, 116, 114, 111, 109, 105, 102, 98, 97, 93, 93, 91, 90, 90, 90, 90, 90, 90, 90, 90, 90]"
"Promise","Wie oft werden Sie die Hälfte zurückgeben?","Promise","1","undefined","2","0","1","60","1080","251","10","1","1330","17","legacy","[11, 21, 31, 41, 51, 61, 71, 81, 91, 101, 111, 121, 131, 141, 151, 161, 171, 181, 191, 201, 211, 221, 231, 241, 251, 261, 271, 281, 291, 301, 311, 321, 331, 341, 351, 361, 371, 381, 391, 401, 411, 421, 431, 441, 451, 461, 471, 481, 491, 501, 511, 521, 531, 541, 551, 561, 571, 581, 591, 601, 611, 621, 631, 641, 651, 661, 671, 681, 691, 701, 711, 721, 731, 741, 751, 761, 771, 781, 791, 801, 811, 821, 831, 841, 851, 861, 871, 881, 891, 901, 911, 921, 931, 941, 951, 961, 971, 981, 991, 1001, 1011, 1021, 1031, 1041, 1051, 1061, 1071, 1081, 1091, 1101, 1111, 1121, 1131, 1141, 1151, 1161, 1171, 1181, 1191, 1201, 1211, 1221, 1231, 1241, 1251, 1261, 1271, 1281, 1291, 1301, 1311, 1321]","1260","1920","[960, 960, 960, 960, 960, 960, 960, 960, 960, 960, 960, 960, 960, 960, 960, 960, 960, 960, 960, 959, 951, 947, 945, 940, 913, 891, 863, 828, 762, 746, 731, 723, 709, 706, 703, 701, 698, 694, 691, 690, 685, 681, 675, 662, 623, 602, 578, 555, 526, 513, 506, 499, 491, 485, 478, 473, 461, 456, 450, 445, 431, 425, 416, 405, 385, 376, 369, 363, 353, 349, 343, 341, 334, 332, 330, 329, 323, 320, 318, 316, 310, 305, 301, 298, 291, 289, 286, 283, 276, 273, 272, 269, 263, 262, 260, 259, 257, 256, 256, 256, 255, 255, 253, 253, 252, 251, 250, 249, 247, 245, 244, 241, 237, 236, 234, 233, 229, 229, 228, 227, 226, 225, 225, 225, 224, 224, 224, 224, 224, 224, 224, 224]","[1010, 1010, 1010, 1010, 1010, 1010, 1010, 1010, 1010, 1010, 1010, 1010, 1010, 1010, 1010, 1010, 1010, 1010, 1010, 1011, 1011, 1010, 1001, 985, 901, 852, 806, 761, 681, 656, 639, 628, 613, 607, 603, 599, 594, 589, 585, 582, 576, 572, 566, 555, 528, 509, 487, 469, 444, 434, 427, 420, 408, 400, 394, 388, 378, 375, 370, 368, 356, 351, 343, 334, 316, 308, 303, 298, 288, 284, 279, 277, 271, 270, 268, 266, 262, 259, 256, 254, 247, 242, 238, 234, 228, 225, 221, 217, 205, 200, 198, 192, 182, 179, 176, 173, 170, 168, 167, 166, 163, 161, 158, 158, 154, 152, 150, 148, 144, 142, 139, 134, 128, 126, 122, 120, 116, 115, 114, 112, 110, 108, 106, 105, 103, 103, 102, 102, 102, 102, 102, 102]"
"Trust","Teilnehmer A hat Ihnen 2 Punkte übermittelt.","Payback","0","undefined","3","0","1","60","1080","201","10","2","923","17","legacy","[11, 21, 31, 41, 51, 61, 71, 81, 91, 101, 111, 121, 131, 141, 151, 161, 171, 181, 191, 201, 211, 221, 231, 241, 251, 261, 271, 281, 291, 301, 311, 321, 331, 341, 351, 361, 371, 381, 391, 401, 411, 421, 431, 441, 451, 461, 471, 481, 491, 501, 511, 521, 531, 541, 551, 561, 571, 581, 591, 601, 611, 621, 631, 641, 651, 661, 671, 681, 691, 701, 711, 721, 731, 741, 751, 761, 771, 781, 791, 801, 811, 821, 831, 841, 851, 861, 871, 881, 891, 901, 911, 921]","1260","1920","[960, 960, 960, 960, 960, 960, 960, 960, 960, 960, 960, 960, 960, 960, 960, 968, 976, 1004, 1031, 1053, 1073, 1108, 1123, 1141, 1158, 1198, 1212, 1227, 1239, 1255, 1262, 1271, 1286, 1310, 1321, 1330, 1338, 1360, 1376, 1390, 1406, 1446, 1467, 1489, 1512, 1537, 1547, 1555, 1566, 1579, 1585, 1590, 1598, 1609, 1615, 1618, 1621, 1630, 1637, 1644, 1651, 1668, 1675, 1679, 1683, 1686, 1688, 1689, 1690, 1692, 1694, 1694, 1696, 1698, 1700, 1700, 1701, 1701, 1701, 1702, 1702, 1703, 1703, 1703, 1703, 1703, 1703, 1703, 1703, 1703, 1703, 1703]","[1010, 1010, 1010, 1010, 1010, 1010, 1010, 1010, 1010, 1010, 1010, 1010, 1010, 1010, 1010, 1003, 997, 969, 944, 921, 897, 861, 847, 832, 819, 791, 781, 770, 761, 744, 734, 725, 710, 691, 683, 675, 666, 646, 626, 611, 590, 534, 506, 473, 446, 414, 398, 382, 363, 334, 319, 302, 286, 258, 246, 233, 223, 198, 187, 175, 164, 139, 128, 121, 115, 106, 102, 100, 98, 93, 92, 90, 87, 83, 81, 81, 79, 79, 78, 77, 77, 77, 76, 76, 76, 76, 76, 76, 76, 76, 76, 76]"
"Trust","Teilnehmer A hat Ihnen 2 Punkte übermittelt.","Payback","1","undefined","4","0","1","60","1080","281","5","1","1500","17","legacy","[11, 21, 31, 41, 51, 61, 71, 81, 91, 101, 111, 121, 131, 141, 151, 161, 171, 181, 191, 201, 211, 221, 231, 241, 251, 261, 271, 281, 291, 301, 311, 321, 331, 341, 351, 361, 371, 381, 391, 401, 411, 421, 431, 441, 451, 461, 471, 481, 491, 501, 511, 521, 531, 541, 551, 561, 571, 581, 591, 601, 611, 621, 631, 641, 651, 661, 671, 681, 691, 701, 711, 721, 731, 741, 751, 761, 771, 781, 791, 801, 811, 821, 831, 841, 851, 861, 871, 881, 891, 901, 911, 921, 931, 941, 951, 961, 971, 981, 991, 1001, 1011, 1021, 1031, 1041, 1051, 1061, 1071, 1081, 1091, 1101, 1111, 1121, 1131, 1141, 1151, 1161, 1171, 1181, 1191, 1201, 1211, 1221, 1231, 1241, 1251, 1261, 1271, 1281, 1291, 1301, 1311, 1321, 1331, 1341, 1351, 1361, 1371, 1381, 1391, 1401, 1411, 1421, 1431, 1441, 1451, 1461, 1471, 1481, 1491]","1260","1920","[960, 960, 960, 960, 960, 960, 960, 960, 960, 960, 960, 960, 960, 960, 960, 959, 959, 954, 952, 950, 946, 935, 933, 928, 923, 912, 905, 894, 886, 860, 843, 826, 814, 794, 785, 780, 771, 750, 739, 722, 709, 694, 689, 683, 680, 674, 669, 666, 661, 643, 626, 616, 607, 595, 590, 585, 579, 567, 560, 553, 544, 534, 528, 524, 519, 508, 502, 497, 491, 479, 474, 466, 460, 447, 441, 434, 425, 410, 402, 395, 389, 376, 371, 364, 355, 341, 335, 328, 323, 317, 315, 313, 309, 302, 298, 293, 290, 283, 281, 278, 277, 273, 271, 269, 268, 262, 260, 259, 256, 255, 255, 253, 251, 246, 240, 237, 231, 224, 220, 220, 220, 219, 218, 218, 218, 217, 216, 216, 216, 216, 216, 216, 215, 215, 215, 215, 215, 215, 215, 215, 215, 215, 215, 215, 215, 215, 215, 215, 215]","[1010, 1010, 1010, 1010, 1010, 1010, 1010, 1010, 1010, 1010, 1010, 1010, 1010, 1010, 1010, 1010, 1010, 1009, 1008, 1005, 1001, 987, 982, 976, 970, 955, 945, 932, 921, 882, 855, 830, 808, 771, 757, 747, 735, 708, 694, 674, 656, 636, 627, 620, 615, 604, 598, 590, 581, 556, 533, 519, 505, 486, 477, 467, 458, 438, 428, 415, 401, 386, 376, 370, 362, 347, 337, 327, 320, 301, 293, 284, 275, 260, 252, 244, 235, 219, 211, 205, 197, 182, 176, 170, 163, 151, 146, 142, 139, 135, 133, 132, 129, 125, 122, 119, 117, 114, 113, 111, 110, 109, 108, 107, 106, 104, 102, 102, 100, 100, 100, 98, 97, 95, 93, 91, 90, 86, 83, 83, 83, 83, 82, 82, 82, 82, 80, 80, 80, 80, 80, 80, 80, 80, 80, 80, 80, 80, 80, 80, 80, 80, 80, 80, 80, 80, 80, 80, 80]"
"Trust","Teilnehmer A hat Ihnen 2 Punkte übermittelt.","Payback","0","undefined","5","0","1","60","1080","321","10","2","1588","17","legacy","[11, 21, 31, 41, 51, 61, 71, 81, 91, 101, 111, 121, 131, 141, 151, 161, 171, 181, 191, 201, 211, 221, 231, 241, 251, 261, 271, 281, 291, 301, 311, 321, 331, 341, 351, 361, 371, 381, 391, 401, 411, 421, 431, 441, 451, 461, 471, 481, 491, 501, 511, 521, 531, 541, 551, 561, 571, 581, 591, 601, 611, 621, 631, 641, 651, 661, 671, 681, 691, 701, 711, 721, 731, 741, 751, 761, 771, 781, 791, 801, 811, 821, 831, 841, 851, 861, 871, 881, 891, 901, 911, 921, 931, 941, 951, 961, 971, 981, 991, 1001, 1011, 1021, 1031, 1041, 1051, 1061, 1071, 1081, 1091, 1101, 1111, 1121, 1131, 1141, 1151, 1161, 1171, 1181, 1191, 1201, 1211, 1221, 1231, 1241, 1251, 1261, 1271, 1281, 1291, 1301, 1311, 1321, 1331, 1341, 1351, 1361, 1371, 1381, 1391, 1401, 1411, 1421, 1431, 1441, 1451, 1461, 1471, 1481, 1491, 1501, 1511, 1521, 1531, 1541, 1551, 1561, 1571, 1581]","1260","1920","[960, 960, 960, 960, 960, 960, 960, 960, 960, 960, 960, 960, 960, 960, 960, 960, 960, 960, 960, 960, 960, 960, 960, 959, 959, 986, 1006, 1022, 1031, 1050, 1060, 1069, 1076, 1084, 1085, 1086, 1089, 1092, 1092, 1095, 1096, 1103, 1108, 1113, 1116, 1125, 1131, 1137, 1143, 1158, 1166, 1178, 1187, 1202, 1210, 1214, 1219, 1224, 1226, 1228, 1229, 1237, 1242, 1247, 1252, 1268, 1275, 1283, 1291, 1307, 1315, 1322, 1331, 1345, 1352, 1359, 1364, 1373, 1378, 1383, 1388, 1398, 1403, 1410, 1415, 1426, 1432, 1436, 1441, 1450, 1454, 1458, 1462, 1472, 1478, 1483, 1486, 1498, 1505, 1513, 1522, 1540, 1548, 1556, 1562, 1574, 1578, 1580, 1584, 1590, 1592, 1593, 1595, 1600, 1601, 1603, 1604, 1608, 1609, 1610, 1611, 1614, 1615, 1618, 1619, 1625, 1627, 1629, 1633, 1640, 1643, 1648, 1653, 1659, 1662, 1665, 1667, 1670, 1673, 1676, 1678, 1684, 1685, 1687, 1689, 1692, 1692, 1694, 1695, 1696, 1696, 1696, 1696, 1696, 1696, 1696, 1696, 1696]","[1010, 1010, 1010, 1010, 1010, 1010, 1010, 1010, 1010, 1010, 1010, 1010, 1010, 1010, 1010, 1010, 1010, 1010, 1010, 1010, 1010, 1010, 1010, 1011, 1011, 994, 982, 971, 964, 950, 943, 935, 929, 922, 921, 919, 916, 914, 912, 909, 908, 899, 894, 889, 886, 874, 867, 860, 852, 831, 814, 793, 772, 745, 736, 730, 724, 715, 711, 705, 700, 688, 680, 675, 667, 647, 637, 627, 616, 592, 579, 566, 552, 524, 514, 504, 494, 479, 469, 461, 454, 435, 426, 415, 407, 392, 385, 381, 375, 361, 356, 350, 342, 325, 316, 306, 300, 284, 276, 267, 255, 232, 223, 214, 205, 192, 187, 184, 180, 173, 171, 169, 167, 162, 161, 158, 157, 153, 152, 150, 149, 146, 144, 142, 141, 136, 134, 133, 130, 125, 123, 120, 118, 115, 113, 111, 110, 108, 106, 105, 103, 100, 99, 99, 97, 95, 95, 93, 93, 92, 92, 92, 92, 92, 92, 92, 92, 92]"
"Promise","Wie oft werden Sie die Hälfte zurückgeben?","Promise","0","undefined","5","0","2","60","1080","281","10","2","1343","17","legacy","[11, 21, 31, 41, 51, 61, 71, 81, 91, 101, 111, 121, 131, 141, 151, 161, 171, 181, 191, 201, 211, 221, 231, 241, 251, 261, 271, 281, 291, 301, 311, 321, 331, 341, 351, 361, 371, 381, 391, 401, 411, 421, 431, 441, 451, 461, 471, 481, 491, 501, 511, 521, 531, 541, 551, 561, 571, 581, 591, 601, 611, 621, 631, 641, 651, 661, 671, 681, 691, 701, 711, 721, 731, 741, 751, 761, 771, 781, 791, 801, 811, 821, 831, 841, 851, 861, 871, 881, 891, 901, 911, 921, 931, 941, 951, 961, 971, 981, 991, 1001, 1011, 1021, 1031, 1041, 1051, 1061, 1071, 1081, 1091, 1101, 1111, 1121, 1131, 1141, 1151, 1161, 1171, 1181, 1191, 1201, 1211, 1221, 1231, 1241, 1251, 1261, 1271, 1281, 1291, 1301, 1311, 1321, 1331, 1341]","1260","1920","[960, 960, 960, 960, 960, 960, 960, 960, 960, 960, 960, 960, 960, 960, 962, 973, 981, 987, 995, 1006, 1011, 1012, 1013, 1015, 1017, 1020, 1023, 1035, 1040, 1047, 1056, 1065, 1069, 1074, 1078, 1085, 1089, 1094, 1099, 1114, 1122, 1128, 1133, 1143, 1148, 1155, 1164, 1182, 1195, 1213, 1228, 1257, 1267, 1278, 1286, 1300, 1308, 1317, 1328, 1351, 1364, 1376, 1386, 1405, 1410, 1417, 1420, 1431, 1436, 1443, 1451, 1464, 1471, 1477, 1484, 1497, 1503, 1512, 1524, 1547, 1559, 1570, 1578, 1588, 1594, 1599, 1606, 1620, 1625, 1630, 1634, 1640, 1641, 1643, 1645, 1654, 1660, 1665, 1671, 1679, 1681, 1684, 1685, 1691, 1696, 1698, 1700, 1704, 1707, 1708, 1709, 1714, 1717, 1718, 1721, 1727, 1729, 1732, 1734, 1738, 1740, 1740, 1740, 1740, 1740, 1741, 1741, 1741, 1741, 1741, 1741, 1741, 1741, 1741]","[1010, 1010, 1010, 1010, 1010, 1010, 1010, 1010, 1010, 1010, 1010, 1010, 1010, 1010, 1010, 1003, 997, 991, 982, 968, 963, 959, 957, 951, 947, 944, 940, 933, 928, 921, 914, 902, 894, 885, 875, 861, 852, 845, 837, 821, 813, 808, 803, 793, 787, 780, 773, 756, 746, 733, 719, 692, 686, 677, 672, 661, 656, 649, 640, 621, 610, 600, 591, 576, 573, 566, 562, 551, 545, 533, 523, 505, 495, 488, 480, 466, 456, 447, 433, 397, 375, 361, 351, 336, 328, 319, 309, 287, 277, 269, 261, 252, 247, 244, 240, 227, 220, 212, 203, 189, 186, 180, 177, 168, 162, 159, 153, 145, 139, 136, 131, 120, 114, 111, 105, 95, 91, 86, 84, 79, 76, 76, 76, 75, 75, 75, 75, 75, 75, 75, 75, 75, 75, 75]"
"Trust","Teilnehmer A hat Ihnen 2 Punkte übermittelt.","Payback","0","undefined","6","0","2","60","1080","211","10","2","1205","17","legacy","[11, 21, 31, 41, 51, 61, 71, 81, 91, 101, 111, 121, 131, 141, 151, 161, 171, 181, 191, 201, 211, 221, 231, 241, 251, 261, 271, 281, 291, 301, 311, 321, 331, 341, 351, 361, 371, 381, 391, 401, 411, 421, 431, 441, 451, 461, 471, 481, 491, 501, 511, 521, 531, 541, 551, 561, 571, 581, 591, 601, 611, 621, 631, 641, 651, 661, 671, 681, 691, 701, 711, 721, 731, 741, 751, 761, 771, 781, 791, 801, 811, 821, 831, 841, 851, 861, 871, 881, 891, 901, 911, 921, 931, 941, 951, 961, 971, 981, 991, 1001, 1011, 1021, 1031, 1041, 1051, 1061, 1071, 1081, 1091, 1101, 1111, 1121, 1131, 1141, 1151, 1161, 1171, 1181, 1191, 1201]","1260","1920","[960, 960, 960, 960, 960, 960, 960, 960, 959, 959, 959, 959, 959, 966, 982, 989, 996, 1001, 1012, 1019, 1023, 1029, 1046, 1052, 1066, 1081, 1106, 1114, 1121, 1124, 1130, 1135, 1141, 1146, 1158, 1163, 1170, 1174, 1181, 1185, 1187, 1192, 1201, 1206, 1211, 1216, 1227, 1236, 1244, 1253, 1279, 1293, 1311, 1325, 1357, 1366, 1376, 1385, 1403, 1414, 1422, 1431, 1444, 1450, 1455, 1461, 1474, 1480, 1487, 1492, 1503, 1511, 1516, 1521, 1531, 1537, 1542, 1548, 1562, 1568, 1576, 1581, 1594, 1600, 1606, 1611, 1623, 1629, 1637, 1644, 1659, 1667, 1676, 1680, 1691, 1695, 1701, 1705, 1714, 1720, 1724, 1729, 1740, 1746, 1751, 1756, 1764, 1767, 1772, 1773, 1776, 1777, 1779, 1779, 1781, 1781, 1781, 1781, 1781, 1781]","[1010, 1010, 1010, 1010, 1010, 1010, 1010, 1010, 1010, 1010, 1010, 1010, 1010, 1010, 1001, 993, 982, 972, 954, 945, 939, 929, 905, 893, 875, 858, 836, 831, 827, 823, 814, 807, 797, 787, 764, 754, 744, 740, 735, 733, 729, 724, 714, 710, 705, 699, 682, 672, 663, 655, 631, 616, 593, 578, 539, 525, 511, 497, 475, 462, 451, 440, 423, 415, 408, 399, 385, 377, 370, 365, 351, 343, 338, 333, 320, 314, 309, 305, 292, 287, 280, 275, 262, 256, 252, 247, 237, 230, 224, 217, 204, 198, 191, 187, 180, 176, 171, 169, 161, 157, 153, 148, 140, 136, 132, 129, 121, 119, 115, 114, 111, 109, 108, 107, 106, 105, 105, 105, 105, 105]"
"NoTrust","Teilnehmer A hat Ihnen keine 2 Punkte übermittelt.","Payback","0","undefined","7","0","2","60","1080","211","0","2","1205","17","legacy","[11, 21, 31, 41, 51, 61, 71, 81, 91, 101, 111, 121, 131, 141, 151, 161, 171, 181, 191, 201, 211, 221, 231, 241, 251, 261, 271, 281, 291, 301, 311, 321, 331, 341, 351, 361, 371, 381, 391, 401, 411, 421, 431, 441, 451, 461, 471, 481, 491, 501, 511, 521, 531, 541, 551, 561, 571, 581, 591, 601, 611, 621, 631, 641, 651, 661, 671, 681, 691, 701, 711, 721, 731, 741, 751, 761, 771, 781, 791, 801, 811, 821, 831, 841, 851, 861, 871, 881, 891, 901, 911, 921, 931, 941, 951, 961, 971, 981, 991, 1001, 1011, 1021, 1031, 1041, 1051, 1061, 1071, 1081, 1091, 1101, 1111, 1121, 1131, 1141, 1151, 1161, 1171, 1181, 1191, 1201]","1260","1920","[960, 960, 960, 960, 960, 960, 960, 960, 959, 959, 959, 959, 959, 966, 982, 989, 996, 1001, 1012, 1019, 1023, 1029, 1046, 1052, 1066, 1081, 1106, 1114, 1121, 1124, 1130, 1135, 1141, 1146, 1158, 1163, 1170, 1174, 1181, 1185, 1187, 1192, 1201, 1206, 1211, 1216, 1227, 1236, 1244, 1253, 1279, 1293, 1311, 1325, 1357, 1366, 1376, 1385, 1403, 1414, 1422, 1431, 1444, 1450, 1455, 1461, 1474, 1480, 1487, 1492, 1503, 1511, 1516, 1521, 1531, 1537, 1542, 1548, 1562, 1568, 1576, 1581, 1594, 1600, 1606, 1611, 1623, 1629, 1637, 1644, 1659, 1667, 1676, 1680, 1691, 1695, 1701, 1705, 1714, 1720, 1724, 1729, 1740, 1746, 1751, 1756, 1764, 1767, 1772, 1773, 1776, 1777, 1779, 1779, 1781, 1781, 1781, 1781, 1781, 1781]","[1010, 1010, 1010, 1010, 1010, 1010, 1010, 1010, 1010, 1010, 1010, 1010, 1010, 1010, 1001, 993, 982, 972, 954, 945, 939, 929, 905, 893, 875, 858, 836, 831, 827, 823, 814, 807, 797, 787, 764, 754, 744, 740, 735, 733, 729, 724, 714, 710, 705, 699, 682, 672, 663, 655, 631, 616, 593, 578, 539, 525, 511, 497, 475, 462, 451, 440, 423, 415, 408, 399, 385, 377, 370, 365, 351, 343, 338, 333, 320, 314, 309, 305, 292, 287, 280, 275, 262, 256, 252, 247, 237, 230, 224, 217, 204, 198, 191, 187, 180, 176, 171, 169, 161, 157, 153, 148, 140, 136, 132, 129, 121, 119, 115, 114, 111, 109, 108, 107, 106, 105, 105, 105, 105, 105]"
"Trust","Teilnehmer A hat Ihnen 2 Punkte übermittelt.","Payback","1","undefined","8","0","2","60","1080","241","5","1","1109","17","legacy","[11, 21, 31, 41, 51, 61, 71, 81, 91, 101, 111, 121, 131, 141, 151, 161, 171, 181, 191, 201, 211, 221, 231, 241, 251, 261, 271, 281, 291, 301, 311, 321, 331, 341, 351, 361, 371, 381, 391, 401, 411, 421, 431, 441, 451, 461, 471, 481, 491, 501, 511, 521, 531, 541, 551, 561, 571, 581, 591, 601, 611, 621, 631, 641, 651, 661, 671, 681, 691, 701, 711, 721, 731, 741, 751, 761, 771, 781, 791, 801, 811, 821, 831, 841, 851, 861, 871, 881, 891, 901, 911, 921, 931, 941, 951, 961, 971, 981, 991, 1001, 1011, 1021, 1031, 1041, 1051, 1061, 1071, 1081, 1091, 1101]","1260","1920","[960, 960, 960, 960, 960, 960, 960, 960, 960, 960, 960, 960, 960, 960, 960, 960, 960, 960, 954, 945, 936, 925, 898, 878, 852, 829, 761, 727, 690, 652, 597, 579, 561, 543, 525, 515, 508, 503, 498, 497, 496, 496, 494, 492, 490, 488, 482, 480, 479, 475, 470, 464, 462, 457, 446, 442, 437, 433, 423, 419, 415, 411, 405, 401, 397, 392, 383, 376, 371, 366, 356, 352, 349, 346, 338, 334, 330, 323, 314, 306, 299, 294, 284, 279, 274, 272, 265, 261, 258, 255, 249, 246, 243, 241, 240, 240, 240, 240, 240, 240, 240, 240, 240, 240, 240, 240, 240, 240, 240, 240]","[1010, 1010, 1010, 1010, 1010, 1010, 1010, 1010, 1010, 1010, 1010, 1010, 1010, 1010, 1010, 1010, 1010, 1010, 1011, 1009, 1000, 986, 947, 914, 872, 834, 742, 699, 652, 616, 555, 534, 516, 501, 480, 470, 461, 455, 449, 447, 446, 445, 441, 439, 434, 427, 414, 405, 397, 388, 370, 360, 353, 344, 325, 317, 310, 303, 290, 285, 281, 277, 267, 260, 255, 247, 237, 231, 226, 221, 211, 207, 203, 201, 192, 187, 182, 176, 161, 152, 142, 135, 127, 124, 121, 118, 113, 110, 109, 106, 102, 101, 100, 98, 97, 97, 97, 97, 97, 97, 97, 97, 97, 97, 97, 97, 97, 97, 97, 97]"
"Promise","Wie oft werden Sie die Hälfte zurückgeben?","Promise","1","undefined","8","0","3","60","1080","321","5","1","1401","17","legacy","[11, 21, 31, 41, 51, 61, 71, 81, 91, 101, 111, 121, 131, 141, 151, 161, 171, 181, 191, 201, 211, 221, 231, 241, 251, 261, 271, 281, 291, 301, 311, 321, 331, 341, 351, 361, 371, 381, 391, 401, 411, 421, 431, 441, 451, 461, 471, 481, 491, 501, 511, 521, 531, 541, 551, 561, 571, 581, 591, 601, 611, 621, 631, 641, 651, 661, 671, 681, 691, 701, 711, 721, 731, 741, 751, 761, 771, 781, 791, 801, 811, 821, 831, 841, 851, 861, 871, 881, 891, 901, 911, 921, 931, 941, 951, 961, 971, 981, 991, 1001, 1011, 1021, 1031, 1041, 1051, 1061, 1071, 1081, 1091, 1101, 1111, 1121, 1131, 1141, 1151, 1161, 1171, 1181, 1191, 1201, 1211, 1221, 1231, 1241, 1251, 1261, 1271, 1281, 1291, 1301, 1311, 1321, 1331, 1341, 1351, 1361, 1371, 1381, 1391, 1401]","1260","1920","[960, 960, 960, 960, 960, 960, 960, 960, 960, 960, 960, 960, 960, 960, 960, 960, 960, 960, 960, 960, 960, 960, 960, 959, 952, 947, 941, 936, 927, 924, 920, 917, 909, 906, 905, 900, 891, 887, 883, 880, 875, 873, 871, 867, 858, 851, 842, 836, 822, 813, 807, 799, 788, 782, 775, 767, 753, 745, 737, 731, 718, 712, 706, 700, 688, 683, 676, 670, 655, 646, 639, 629, 612, 601, 590, 577, 552, 540, 532, 523, 505, 498, 493, 486, 474, 466, 459, 451, 437, 430, 421, 414, 395, 385, 377, 369, 355, 347, 341, 335, 323, 320, 311, 307, 297, 293, 290, 286, 277, 274, 271, 268, 264, 262, 259, 258, 253, 251, 246, 242, 236, 234, 232, 231, 228, 228, 228, 228, 228, 228, 228, 228, 228, 228, 228, 228, 228, 228, 228, 228]","[1010, 1010, 1010, 1010, 1010, 1010, 1010, 1010, 1010, 1010, 1010, 1010, 1010, 1010, 1010, 1010, 1010, 1010, 1010, 1010, 1010, 1010, 1010, 1010, 996, 986, 977, 967, 953, 947, 940, 936, 926, 921, 918, 911, 898, 892, 887, 883, 876, 872, 869, 864, 852, 843, 834, 825, 807, 797, 788, 779, 761, 753, 742, 729, 705, 694, 683, 675, 658, 650, 641, 634, 616, 607, 594, 583, 552, 532, 519, 502, 470, 453, 439, 422, 383, 364, 345, 331, 306, 299, 290, 281, 265, 257, 250, 245, 232, 226, 219, 213, 197, 190, 183, 178, 167, 163, 160, 157, 149, 147, 143, 140, 136, 135, 132, 130, 127, 125, 124, 123, 121, 120, 118, 117, 115, 113, 112, 109, 106, 105, 105, 105, 103, 103, 103, 103, 103, 103, 103, 103, 103, 103, 103, 103, 103, 103, 103, 103]"
"Trust","Teilnehmer A hat Ihnen 2 Punkte übermittelt.","Payback","1","undefined","9","0","3","60","1080","231","5","1","1285","17","legacy","[11, 21, 31, 41, 51, 61, 71, 81, 91, 101, 111, 121, 131, 141, 151, 161, 171, 181, 191, 201, 211, 221, 231, 241, 251, 261, 271, 281, 291, 301, 311, 321, 331, 341, 351, 361, 371, 381, 391, 401, 411, 421, 431, 441, 451, 461, 471, 481, 491, 501, 511, 521, 531, 541, 551, 561, 571, 581, 591, 601, 611, 621, 631, 641, 651, 661, 671, 681, 691, 701, 711, 721, 731, 741, 751, 761, 771, 781, 791, 801, 811, 821, 831, 841, 851, 861, 871, 881, 891, 901, 911, 921, 931, 941, 951, 961, 971, 981, 991, 1001, 1011, 1021, 1031, 1041, 1051, 1061, 1071, 1081, 1091, 1101, 1111, 1121, 1131, 1141, 1151, 1161, 1171, 1181, 1191, 1201, 1211, 1221, 1231, 1241, 1251, 1261, 1271, 1281]","1260","1920","[960, 960, 960, 960, 960, 960, 960, 960, 960, 960, 960, 960, 960, 960, 958, 958, 955, 952, 943, 939, 929, 923, 901, 891, 886, 880, 866, 862, 857, 851, 843, 838, 833, 828, 817, 810, 801, 784, 756, 743, 735, 728, 715, 708, 703, 697, 684, 679, 674, 668, 651, 638, 627, 608, 571, 551, 534, 526, 508, 500, 492, 484, 463, 456, 450, 444, 433, 429, 423, 418, 405, 398, 389, 382, 372, 369, 365, 362, 354, 350, 347, 343, 334, 327, 321, 315, 300, 293, 285, 280, 271, 266, 261, 256, 245, 243, 243, 242, 242, 242, 241, 241, 238, 237, 235, 234, 232, 231, 231, 231, 230, 229, 228, 227, 226, 224, 224, 224, 223, 223, 223, 223, 223, 223, 223, 223, 223, 223]","[1010, 1010, 1010, 1010, 1010, 1010, 1010, 1010, 1010, 1010, 1010, 1011, 1011, 1011, 1012, 1012, 1012, 1012, 997, 986, 969, 954, 913, 897, 887, 878, 863, 857, 852, 845, 835, 830, 824, 818, 801, 790, 778, 760, 727, 712, 700, 689, 671, 661, 650, 638, 607, 595, 587, 578, 553, 538, 522, 501, 459, 436, 415, 404, 380, 369, 359, 347, 321, 312, 303, 294, 278, 273, 267, 262, 250, 245, 239, 234, 227, 225, 221, 219, 213, 211, 209, 205, 198, 194, 190, 186, 176, 171, 165, 163, 157, 153, 151, 148, 141, 140, 140, 139, 139, 139, 137, 136, 132, 130, 128, 127, 125, 124, 123, 122, 120, 118, 117, 115, 112, 110, 109, 108, 107, 106, 106, 106, 106, 106, 106, 106, 106, 106]"
"Trust","Teilnehmer A hat Ihnen 2 Punkte übermittelt.","Payback","0","undefined","10","0","3","60","1080","351","10","2","1278","17","legacy","[11, 21, 31, 41, 51, 61, 71, 81, 91, 101, 111, 121, 131, 141, 151, 161, 171, 181, 191, 201, 211, 221, 231, 241, 251, 261, 271, 281, 291, 301, 311, 321, 331, 341, 351, 361, 371, 381, 391, 401, 411, 421, 431, 441, 451, 461, 471, 481, 491, 501, 511, 521, 531, 541, 551, 561, 571, 581, 591, 601, 611, 621, 631, 641, 651, 661, 671, 681, 691, 701, 711, 721, 731, 741, 751, 761, 771, 781, 791, 801, 811, 821, 831, 841, 851, 861, 871, 881, 891, 901, 911, 921, 931, 941, 951, 961, 971, 981, 991, 1001, 1011, 1021, 1031, 1041, 1051, 1061, 1071, 1081, 1091, 1101, 1111, 1121, 1131, 1141, 1151, 1161, 1171, 1181, 1191, 1201, 1211, 1221, 1231, 1241, 1251, 1261, 1271]","1260","1920","[960, 960, 960, 960, 960, 960, 960, 960, 960, 960, 960, 960, 960, 960, 960, 960, 960, 960, 960, 960, 964, 969, 980, 985, 993, 1002, 1021, 1029, 1035, 1038, 1044, 1049, 1054, 1059, 1070, 1074, 1079, 1086, 1094, 1098, 1101, 1106, 1116, 1123, 1129, 1137, 1153, 1159, 1168, 1175, 1187, 1194, 1205, 1212, 1227, 1235, 1244, 1251, 1265, 1271, 1278, 1284, 1295, 1301, 1307, 1314, 1333, 1340, 1351, 1357, 1373, 1381, 1388, 1395, 1414, 1426, 1433, 1440, 1454, 1460, 1465, 1471, 1482, 1487, 1493, 1496, 1506, 1511, 1516, 1522, 1531, 1537, 1542, 1549, 1558, 1565, 1571, 1578, 1596, 1601, 1609, 1615, 1627, 1634, 1640, 1646, 1660, 1667, 1673, 1679, 1693, 1699, 1706, 1712, 1725, 1733, 1737, 1742, 1746, 1747, 1748, 1748, 1748, 1749, 1749, 1749, 1749]","[1010, 1010, 1010, 1010, 1010, 1010, 1010, 1010, 1010, 1010, 1010, 1010, 1010, 1010, 1010, 1010, 1010, 1010, 1010, 1010, 1009, 1006, 998, 994, 988, 982, 971, 966, 963, 961, 956, 954, 951, 947, 939, 936, 932, 928, 922, 919, 917, 913, 906, 900, 897, 891, 878, 874, 867, 862, 854, 849, 842, 836, 825, 818, 810, 804, 794, 789, 784, 779, 767, 760, 751, 739, 711, 701, 687, 677, 650, 640, 627, 614, 581, 562, 549, 536, 512, 501, 492, 483, 466, 458, 449, 442, 427, 418, 411, 403, 389, 382, 373, 362, 344, 334, 324, 315, 292, 284, 273, 265, 246, 237, 227, 219, 199, 190, 181, 172, 156, 149, 140, 132, 116, 107, 102, 97, 92, 90, 89, 89, 89, 87, 87, 87, 87]"
"Trust","Teilnehmer A hat Ihnen 2 Punkte übermittelt.","Payback","0","undefined","11","0","3","60","1080","371","10","2","1342","17","legacy","[11, 21, 31, 41, 51, 61, 71, 81, 91, 101, 111, 121, 131, 141, 151, 161, 171, 181, 191, 201, 211, 221, 231, 241, 251, 261, 271, 281, 291, 301, 311, 321, 331, 341, 351, 361, 371, 381, 391, 401, 411, 421, 431, 441, 451, 461, 471, 481, 491, 501, 511, 521, 531, 541, 551, 561, 571, 581, 591, 601, 611, 621, 631, 641, 651, 661, 671, 681, 691, 701, 711, 721, 731, 741, 751, 761, 771, 781, 791, 801, 811, 821, 831, 841, 851, 861, 871, 881, 891, 901, 911, 921, 931, 941, 951, 961, 971, 981, 991, 1001, 1011, 1021, 1031, 1041, 1051, 1061, 1071, 1081, 1091, 1101, 1111, 1121, 1131, 1141, 1151, 1161, 1171, 1181, 1191, 1201, 1211, 1221, 1231, 1241, 1251, 1261, 1271, 1281, 1291, 1301, 1311, 1321, 1331, 1341]","1260","1920","[960, 960, 960, 960, 960, 960, 960, 960, 960, 960, 960, 960, 960, 960, 960, 960, 960, 960, 960, 960, 960, 960, 960, 961, 964, 969, 980, 985, 988, 993, 1000, 1004, 1009, 1014, 1025, 1030, 1036, 1043, 1052, 1058, 1064, 1071, 1085, 1092, 1101, 1110, 1128, 1135, 1144, 1155, 1184, 1195, 1211, 1230, 1253, 1262, 1269, 1280, 1298, 1307, 1317, 1325, 1344, 1353, 1358, 1364, 1377, 1383, 1389, 1395, 1412, 1423, 1430, 1440, 1452, 1458, 1464, 1470, 1485, 1493, 1500, 1510, 1524, 1527, 1531, 1534, 1535, 1537, 1540, 1542, 1549, 1551, 1555, 1558, 1565, 1568, 1573, 1579, 1591, 1598, 1603, 1609, 1617, 1621, 1623, 1624, 1626, 1627, 1629, 1632, 1643, 1644, 1645, 1647, 1649, 1649, 1649, 1650, 1652, 1654, 1655, 1656, 1660, 1662, 1664, 1666, 1666, 1666, 1666, 1666, 1666, 1666, 1666, 1666]","[1010, 1010, 1010, 1010, 1010, 1010, 1010, 1011, 1011, 1011, 1011, 1011, 1011, 1011, 1011, 1011, 1011, 1011, 1011, 1011, 1011, 1011, 1011, 1010, 1007, 1005, 997, 994, 991, 987, 980, 975, 968, 961, 948, 942, 934, 927, 914, 906, 898, 888, 871, 864, 856, 848, 832, 826, 817, 809, 783, 770, 756, 738, 714, 702, 694, 681, 658, 644, 629, 618, 592, 580, 570, 560, 540, 528, 517, 507, 474, 453, 435, 414, 386, 371, 359, 344, 318, 302, 282, 260, 230, 220, 210, 203, 191, 185, 179, 175, 162, 160, 155, 151, 143, 136, 131, 126, 116, 112, 108, 105, 98, 95, 94, 93, 91, 90, 89, 89, 84, 84, 82, 82, 82, 81, 81, 81, 81, 79, 79, 79, 78, 77, 76, 75, 75, 75, 75, 75, 75, 75, 75, 75]"
"Promise","Wie oft werden Sie die Hälfte zurückgeben?","Promise","0","undefined","11","0","4","60","1080","281","10","2","2847","17","legacy","[11, 21, 31, 41, 51, 61, 71, 81, 91, 101, 111, 121, 131, 141, 151, 161, 171, 181, 191, 201, 211, 221, 231, 241, 251, 261, 271, 281, 291, 301, 311, 321, 331, 341, 351, 361, 371, 381, 391, 401, 411, 421, 431, 441, 451, 461, 471, 481, 491, 501, 511, 521, 531, 541, 551, 561, 571, 581, 591, 601, 611, 621, 631, 641, 651, 661, 671, 681, 691, 701, 711, 721, 731, 741, 751, 761, 771, 781, 791, 801, 811, 821, 831, 841, 851, 861, 871, 881, 891, 901, 911, 921, 931, 941, 951, 961, 971, 981, 991, 1001, 1011, 1021, 1031, 1041, 1051, 1061, 1071, 1081, 1091, 1101, 1111, 1121, 1131, 1141, 1151, 1161, 1171, 1181, 1191, 1201, 1211, 1221, 1231, 1241, 1251, 1261, 1271, 1281, 1291, 1301, 1311, 1321, 1331, 1341, 1351, 1361, 1371, 1381, 1391, 1401, 1411, 1421, 1431, 1441, 1451, 1461, 1471, 1481, 1491, 1501, 1511, 1521, 1531, 1541, 1551, 1561, 1571, 1581, 1591, 1601, 1611, 1621, 1631, 1641, 1651, 1661, 1671, 1681, 1691, 1701, 1711, 1721, 1731, 1741, 1751, 1761, 1771, 1781, 1791, 1801, 1811, 1821, 1831, 1841, 1851, 1861, 1871, 1881, 1891, 1901, 1911, 1921, 1931, 1941, 1951, 1961, 1971, 1981, 1991, 2001, 2011, 2021, 2031, 2041, 2051, 2061, 2071, 2081, 2091, 2101, 2111, 2121, 2131, 2141, 2151, 2161, 2171, 2181, 2191, 2201, 2211, 2221, 2231, 2241, 2251, 2261, 2271, 2281, 2291, 2301, 2311, 2321, 2331, 2341, 2351, 2361, 2371, 2381, 2391, 2401, 2411, 2421, 2431, 2441, 2451, 2461, 2471, 2481, 2491, 2501, 2511, 2521, 2531, 2541, 2551, 2561, 2571, 2581, 2591, 2601, 2611, 2621, 2631, 2641, 2651, 2661, 2671, 2681, 2691, 2701, 2711, 2721, 2731, 2741, 2751, 2761, 2771, 2781, 2791, 2801, 2811, 2821, 2831, 2841]","1260","1920","[960, 960, 960, 960, 960, 960, 960, 960, 960, 960, 960, 960, 960, 960, 960, 960, 960, 960, 960, 960, 960, 960, 964, 987, 1005, 1019, 1034, 1066, 1081, 1095, 1106, 1132, 1148, 1164, 1180, 1210, 1220, 1229, 1238, 1251, 1258, 1263, 1270, 1278, 1280, 1284, 1288, 1299, 1304, 1310, 1317, 1331, 1339, 1347, 1355, 1369, 1372, 1377, 1381, 1390, 1394, 1399, 1402, 1411, 1415, 1421, 1426, 1434, 1435, 1436, 1438, 1443, 1445, 1448, 1448, 1448, 1449, 1449, 1450, 1452, 1453, 1457, 1458, 1463, 1465, 1467, 1468, 1472, 1473, 1474, 1475, 1479, 1480, 1481, 1484, 1487, 1490, 1490, 1493, 1498, 1500, 1503, 1504, 1507, 1508, 1510, 1512, 1512, 1512, 1512, 1512, 1510, 1509, 1508, 1505, 1501, 1499, 1496, 1493, 1483, 1472, 1462, 1451, 1426, 1413, 1399, 1385, 1359, 1349, 1336, 1325, 1301, 1287, 1273, 1256, 1231, 1219, 1210, 1200, 1182, 1170, 1160, 1150, 1134, 1124, 1113, 1107, 1084, 1070, 1059, 1045, 1020, 1007, 994, 977, 946, 928, 910, 898, 873, 863, 855, 848, 834, 826, 820, 815, 800, 794, 785, 776, 756, 742, 733, 724, 705, 697, 683, 677, 654, 642, 628, 613, 586, 574, 563, 548, 516, 504, 494, 482, 466, 458, 452, 449, 448, 448, 448, 448, 456, 467, 479, 495, 556, 598, 637, 684, 781, 833, 886, 933, 1019, 1058, 1088, 1114, 1168, 1192, 1226, 1252, 1311, 1333, 1366, 1386, 1431, 1456, 1474, 1487, 1530, 1551, 1575, 1604, 1650, 1667, 1683, 1697, 1726, 1739, 1749, 1754, 1763, 1766, 1767, 1768, 1773, 1778, 1784, 1788, 1798, 1803, 1805, 1809, 1816, 1819, 1821, 1823, 1827, 1827, 1828, 1829, 1829, 1830, 1830, 1830, 1831, 1831, 1831, 1831, 1832, 1832, 1832, 1832, 1832, 1832, 1833, 1833, 1833, 1834, 1834, 1834, 1834, 1834, 1835, 1835, 1835]","[1010, 1010, 1010, 1010, 1010, 1010, 1010, 1010, 1010, 1010, 1010, 1010, 1010, 1010, 1010, 1010, 1010, 1010, 1010, 1010, 1010, 1010, 1010, 996, 984, 973, 959, 929, 911, 892, 875, 840, 818, 795, 772, 737, 725, 715, 704, 688, 679, 670, 661, 649, 643, 638, 631, 616, 608, 601, 590, 571, 562, 553, 544, 528, 524, 518, 514, 504, 498, 491, 487, 475, 470, 463, 458, 451, 449, 446, 444, 436, 432, 428, 426, 426, 424, 424, 422, 417, 412, 407, 403, 388, 383, 377, 371, 359, 355, 350, 346, 334, 329, 324, 319, 311, 307, 304, 300, 289, 283, 278, 275, 265, 260, 254, 247, 242, 239, 236, 234, 231, 230, 230, 227, 224, 223, 222, 220, 214, 209, 205, 202, 195, 191, 187, 184, 174, 172, 168, 164, 158, 153, 149, 146, 139, 134, 132, 129, 127, 123, 123, 123, 123, 122, 121, 119, 116, 114, 112, 111, 107, 106, 102, 101, 96, 95, 92, 92, 89, 89, 88, 87, 87, 87, 87, 87, 87, 87, 87, 87, 87, 85, 83, 82, 81, 81, 78, 78, 73, 72, 70, 68, 64, 62, 61, 59, 52, 50, 48, 47, 44, 44, 44, 44, 44, 44, 44, 47, 55, 63, 70, 78, 102, 115, 128, 140, 168, 184, 200, 212, 237, 248, 257, 265, 276, 279, 280, 283, 283, 283, 283, 283, 283, 283, 283, 280, 269, 267, 264, 259, 251, 250, 248, 245, 242, 240, 237, 236, 233, 231, 230, 229, 225, 221, 217, 214, 204, 198, 192, 186, 176, 173, 168, 165, 159, 158, 154, 152, 147, 144, 143, 141, 139, 138, 137, 135, 131, 128, 127, 125, 121, 120, 119, 118, 115, 113, 112, 111, 111, 111, 110, 110, 110]"
"Trust","Teilnehmer A hat Ihnen 2 Punkte übermittelt.","Payback","0","undefined","12","0","4","60","1080","311","10","2","1229","17","legacy","[11, 21, 31, 41, 51, 61, 71, 81, 91, 101, 111, 121, 131, 141, 151, 161, 171, 181, 191, 201, 211, 221, 231, 241, 251, 261, 271, 281, 291, 301, 311, 321, 331, 341, 351, 361, 371, 381, 391, 401, 411, 421, 431, 441, 451, 461, 471, 481, 491, 501, 511, 521, 531, 541, 551, 561, 571, 581, 591, 601, 611, 621, 631, 641, 651, 661, 671, 681, 691, 701, 711, 721, 731, 741, 751, 761, 771, 781, 791, 801, 811, 821, 831, 841, 851, 861, 871, 881, 891, 901, 911, 921, 931, 941, 951, 961, 971, 981, 991, 1001, 1011, 1021, 1031, 1041, 1051, 1061, 1071, 1081, 1091, 1101, 1111, 1121, 1131, 1141, 1151, 1161, 1171, 1181, 1191, 1201, 1211, 1221]","1260","1920","[960, 960, 960, 960, 960, 960, 960, 960, 960, 960, 960, 960, 960, 960, 960, 960, 960, 960, 966, 974, 984, 994, 1017, 1029, 1040, 1050, 1066, 1072, 1079, 1087, 1103, 1110, 1119, 1127, 1139, 1144, 1148, 1154, 1163, 1167, 1171, 1173, 1184, 1191, 1204, 1215, 1246, 1264, 1283, 1303, 1346, 1365, 1382, 1399, 1428, 1441, 1452, 1465, 1481, 1487, 1492, 1499, 1507, 1510, 1516, 1521, 1535, 1541, 1549, 1555, 1568, 1572, 1576, 1583, 1588, 1593, 1597, 1600, 1605, 1607, 1611, 1615, 1625, 1628, 1633, 1638, 1647, 1652, 1657, 1663, 1670, 1674, 1679, 1681, 1688, 1692, 1695, 1699, 1707, 1712, 1716, 1719, 1728, 1733, 1740, 1745, 1756, 1761, 1766, 1769, 1774, 1775, 1777, 1777, 1778, 1778, 1778, 1778, 1778, 1778, 1778, 1778]","[1010, 1010, 1010, 1010, 1010, 1010, 1010, 1010, 1010, 1010, 1010, 1010, 1010, 1010, 1010, 1010, 1010, 1010, 1010, 1010, 1005, 999, 983, 976, 968, 962, 953, 950, 945, 940, 928, 921, 913, 906, 895, 890, 885, 879, 868, 863, 857, 851, 832, 817, 795, 776, 719, 692, 661, 631, 572, 544, 516, 491, 447, 427, 413, 396, 378, 370, 365, 356, 346, 340, 334, 326, 310, 303, 295, 287, 272, 267, 262, 254, 246, 241, 236, 234, 228, 224, 220, 218, 209, 206, 202, 197, 188, 183, 178, 174, 168, 164, 160, 159, 155, 151, 149, 146, 141, 138, 137, 134, 127, 124, 120, 116, 107, 104, 102, 98, 95, 94, 93, 92, 91, 91, 91, 91, 91, 91, 91, 91]"
"Trust","Teilnehmer A hat Ihnen 2 Punkte übermittelt.","Payback","1","undefined","13","0","4","60","1080","221","5","1","2366","17","legacy","[11, 21, 31, 41, 51, 61, 71, 81, 91, 101, 111, 121, 131, 141, 151, 161, 171, 181, 191, 201, 211, 221, 231, 241, 251, 261, 271, 281, 291, 301, 311, 321, 331, 341, 351, 361, 371, 381, 391, 401, 411, 421, 431, 441, 451, 461, 471, 481, 491, 501, 511, 521, 531, 541, 551, 561, 571, 581, 591, 601, 611, 621, 631, 641, 651, 661, 671, 681, 691, 701, 711, 721, 731, 741, 751, 761, 771, 781, 791, 801, 811, 821, 831, 841, 851, 861, 871, 881, 891, 901, 911, 921, 931, 941, 951, 961, 971, 981, 991, 1001, 1011, 1021, 1031, 1041, 1051, 1061, 1071, 1081, 1091, 1101, 1111, 1121, 1131, 1141, 1151, 1161, 1171, 1181, 1191, 1201, 1211, 1221, 1231, 1241, 1251, 1261, 1271, 1281, 1291, 1301, 1311, 1321, 1331, 1341, 1351, 1361, 1371, 1381, 1391, 1401, 1411, 1421, 1431, 1441, 1451, 1461, 1471, 1481, 1491, 1501, 1511, 1521, 1531, 1541, 1551, 1561, 1571, 1581, 1591, 1601, 1611, 1621, 1631, 1641, 1651, 1661, 1671, 1681, 1691, 1701, 1711, 1721, 1731, 1741, 1751, 1761, 1771, 1781, 1791, 1801, 1811, 1821, 1831, 1841, 1851, 1861, 1871, 1881, 1891, 1901, 1911, 1921, 1931, 1941, 1951, 1961, 1971, 1981, 1991, 2001, 2011, 2021, 2031, 2041, 2051, 2061, 2071, 2081, 2091, 2101, 2111, 2121, 2131, 2141, 2151, 2161, 2171, 2181, 2191, 2201, 2211, 2221, 2231, 2241, 2251, 2261, 2271, 2281, 2291, 2301, 2311, 2321, 2331, 2341, 2351, 2361]","1260","1920","[960, 960, 960, 960, 960, 960, 960, 960, 960, 960, 960, 960, 960, 960, 960, 958, 957, 957, 957, 957, 957, 957, 957, 957, 957, 957, 957, 957, 957, 957, 957, 957, 957, 957, 957, 957, 956, 955, 955, 954, 952, 952, 951, 950, 948, 947, 945, 944, 943, 943, 943, 943, 943, 943, 943, 943, 943, 943, 947, 947, 947, 948, 953, 953, 954, 955, 959, 959, 961, 964, 966, 967, 970, 971, 974, 975, 976, 979, 983, 985, 986, 988, 992, 993, 997, 999, 1006, 1009, 1012, 1017, 1025, 1029, 1032, 1036, 1046, 1048, 1052, 1056, 1059, 1062, 1063, 1067, 1070, 1073, 1076, 1079, 1083, 1085, 1086, 1088, 1092, 1094, 1097, 1100, 1102, 1105, 1107, 1111, 1118, 1120, 1125, 1131, 1145, 1151, 1159, 1165, 1180, 1187, 1196, 1205, 1221, 1228, 1234, 1239, 1249, 1253, 1257, 1259, 1263, 1265, 1265, 1266, 1266, 1266, 1265, 1263, 1253, 1250, 1249, 1245, 1236, 1232, 1225, 1216, 1196, 1186, 1174, 1164, 1148, 1140, 1134, 1127, 1113, 1109, 1101, 1093, 1076, 1067, 1054, 1043, 1017, 1002, 978, 951, 901, 880, 866, 850, 823, 811, 798, 787, 765, 759, 750, 744, 729, 721, 714, 707, 688, 677, 666, 655, 631, 614, 597, 572, 497, 461, 422, 380, 313, 282, 253, 232, 203, 192, 184, 176, 162, 157, 154, 152, 148, 146, 144, 144, 141, 141, 141, 141, 141, 141, 140, 140, 138, 137, 137, 137, 137, 136, 136, 136, 136, 136]","[1010, 1010, 1010, 1010, 1010, 1010, 1010, 1010, 1010, 1010, 1010, 1010, 1010, 1010, 1010, 1006, 998, 987, 965, 954, 943, 936, 921, 913, 907, 902, 893, 890, 887, 882, 876, 874, 871, 870, 864, 860, 857, 852, 840, 832, 826, 820, 805, 796, 785, 776, 760, 751, 744, 737, 722, 713, 706, 698, 682, 672, 665, 657, 639, 630, 624, 615, 593, 581, 570, 559, 537, 526, 515, 505, 489, 484, 478, 471, 461, 457, 455, 450, 442, 440, 438, 434, 428, 426, 423, 420, 412, 408, 403, 398, 391, 387, 382, 379, 370, 367, 365, 362, 360, 358, 357, 354, 353, 350, 350, 348, 346, 346, 345, 344, 342, 341, 341, 339, 338, 337, 335, 335, 331, 330, 329, 326, 319, 316, 313, 310, 301, 294, 286, 278, 257, 244, 232, 222, 202, 194, 184, 175, 161, 153, 150, 144, 133, 126, 118, 109, 92, 86, 83, 78, 66, 60, 54, 45, 29, 21, 15, 9, 0, 0, 0, 0, 0, 0, 0, 0, 0, 0, 0, 0, 0, 0, 0, 0, 0, 0, 0, 0, 0, 0, 0, 0, 0, 0, 0, 0, 0, 0, 0, 0, 0, 0, 0, 0, 0, 0, 0, 0, 0, 0, 0, 0, 0, 0, 0, 0, 0, 0, 0, 0, 0, 0, 0, 0, 0, 0, 0, 0, 1, 1, 1, 1, 1, 1, 1, 2, 6, 10, 14, 18, 28, 31, 32, 34, 37, 37]"
"Trust","Teilnehmer A hat Ihnen 2 Punkte übermittelt.","Payback","0","undefined","14","0","4","60","1080","371","10","2","1788","17","legacy","[11, 21, 31, 41, 51, 61, 71, 81, 91, 101, 111, 121, 131, 141, 151, 161, 171, 181, 191, 201, 211, 221, 231, 241, 251, 261, 271, 281, 291, 301, 311, 321, 331, 341, 351, 361, 371, 381, 391, 401, 411, 421, 431, 441, 451, 461, 471, 481, 491, 501, 511, 521, 531, 541, 551, 561, 571, 581, 591, 601, 611, 621, 631, 641, 651, 661, 671, 681, 691, 701, 711, 721, 731, 741, 751, 761, 771, 781, 791, 801, 811, 821, 831, 841, 851, 861, 871, 881, 891, 901, 911, 921, 931, 941, 951, 961, 971, 981, 991, 1001, 1011, 1021, 1031, 1041, 1051, 1061, 1071, 1081, 1091, 1101, 1111, 1121, 1131, 1141, 1151, 1161, 1171, 1181, 1191, 1201, 1211, 1221, 1231, 1241, 1251, 1261, 1271, 1281, 1291, 1301, 1311, 1321, 1331, 1341, 1351, 1361, 1371, 1381, 1391, 1401, 1411, 1421, 1431, 1441, 1451, 1461, 1471, 1481, 1491, 1501, 1511, 1521, 1531, 1541, 1551, 1561, 1571, 1581, 1591, 1601, 1611, 1621, 1631, 1641, 1651, 1661, 1671, 1681, 1691, 1701, 1711, 1721, 1731, 1741, 1751, 1761, 1771, 1781]","1260","1920","[960, 961, 961, 961, 962, 964, 965, 968, 968, 970, 970, 970, 970, 970, 970, 970, 970, 970, 970, 970, 970, 970, 970, 970, 971, 971, 972, 972, 974, 974, 974, 974, 974, 974, 974, 974, 974, 972, 970, 969, 969, 968, 965, 964, 963, 958, 955, 953, 949, 948, 947, 947, 946, 944, 944, 943, 942, 940, 936, 935, 932, 929, 926, 924, 920, 911, 905, 902, 899, 893, 890, 888, 888, 886, 886, 886, 886, 883, 882, 882, 882, 880, 878, 876, 875, 870, 869, 866, 864, 861, 859, 858, 857, 855, 852, 850, 847, 841, 838, 837, 836, 831, 828, 827, 824, 821, 819, 817, 814, 810, 807, 805, 804, 802, 801, 801, 800, 799, 799, 799, 799, 799, 800, 804, 811, 825, 833, 841, 851, 876, 890, 901, 917, 944, 962, 975, 985, 1012, 1028, 1045, 1061, 1100, 1123, 1148, 1173, 1218, 1243, 1271, 1310, 1377, 1419, 1460, 1499, 1581, 1621, 1650, 1678, 1707, 1716, 1722, 1726, 1728, 1728, 1729, 1729, 1730, 1731, 1732, 1732, 1735, 1736, 1737, 1737, 1737, 1737, 1737, 1737, 1737]","[1010, 1009, 1009, 1009, 1009, 1008, 1008, 1006, 1006, 1006, 1006, 1006, 1006, 1006, 1006, 1006, 1006, 1006, 1006, 1006, 1006, 1006, 1006, 1005, 1005, 1001, 996, 992, 987, 979, 975, 973, 968, 956, 949, 945, 938, 921, 914, 907, 901, 891, 884, 878, 873, 858, 849, 842, 835, 831, 828, 825, 824, 819, 817, 814, 812, 803, 797, 794, 786, 773, 766, 760, 753, 733, 723, 714, 707, 691, 681, 673, 663, 641, 629, 618, 604, 569, 554, 541, 530, 507, 496, 485, 476, 461, 455, 448, 439, 426, 421, 418, 415, 407, 403, 398, 392, 380, 373, 370, 368, 359, 354, 351, 349, 341, 338, 332, 328, 319, 313, 310, 306, 301, 297, 294, 290, 285, 282, 279, 276, 271, 265, 260, 254, 242, 235, 229, 223, 208, 199, 192, 182, 166, 155, 148, 142, 126, 118, 112, 109, 100, 97, 92, 91, 91, 91, 91, 91, 91, 91, 91, 91, 93, 100, 102, 102, 102, 102, 102, 102, 101, 101, 101, 101, 100, 99, 98, 98, 97, 97, 96, 96, 96, 96, 96, 96, 96]"
"Promise","Wie oft werden Sie die Hälfte zurückgeben?","Promise","1","undefined","14","0","5","60","1080","591","10","1","3760","17","legacy","[11, 21, 31, 41, 51, 61, 71, 81, 91, 101, 111, 121, 131, 141, 151, 161, 171, 181, 191, 201, 211, 221, 231, 241, 251, 261, 271, 281, 291, 301, 311, 321, 331, 341, 351, 361, 371, 381, 391, 401, 411, 421, 431, 441, 451, 461, 471, 481, 491, 501, 511, 521, 531, 541, 551, 561, 571, 581, 591, 601, 611, 621, 631, 641, 651, 661, 671, 681, 691, 701, 711, 721, 731, 741, 751, 761, 771, 781, 791, 801, 811, 821, 831, 841, 851, 861, 871, 881, 891, 901, 911, 921, 931, 941, 951, 961, 971, 981, 991, 1001, 1011, 1021, 1031, 1041, 1051, 1061, 1071, 1081, 1091, 1101, 1111, 1121, 1131, 1141, 1151, 1161, 1171, 1181, 1191, 1201, 1211, 1221, 1231, 1241, 1251, 1261, 1271, 1281, 1291, 1301, 1311, 1321, 1331, 1341, 1351, 1361, 1371, 1381, 1391, 1401, 1411, 1421, 1431, 1441, 1451, 1461, 1471, 1481, 1491, 1501, 1511, 1521, 1531, 1541, 1551, 1561, 1571, 1581, 1591, 1601, 1611, 1621, 1631, 1641, 1651, 1661, 1671, 1681, 1691, 1701, 1711, 1721, 1731, 1741, 1751, 1761, 1771, 1781, 1791, 1801, 1811, 1821, 1831, 1841, 1851, 1861, 1871, 1881, 1891, 1901, 1911, 1921, 1931, 1941, 1951, 1961, 1971, 1981, 1991, 2001, 2011, 2021, 2031, 2041, 2051, 2061, 2071, 2081, 2091, 2101, 2111, 2121, 2131, 2141, 2151, 2161, 2171, 2181, 2191, 2201, 2211, 2221, 2231, 2241, 2251, 2261, 2271, 2281, 2291, 2301, 2311, 2321, 2331, 2341, 2351, 2361, 2371, 2381, 2391, 2401, 2411, 2421, 2431, 2441, 2451, 2461, 2471, 2481, 2491, 2501, 2511, 2521, 2531, 2541, 2551, 2561, 2571, 2581, 2591, 2601, 2611, 2621, 2631, 2641, 2651, 2661, 2671, 2681, 2691, 2701, 2711, 2721, 2731, 2741, 2751, 2761, 2771, 2781, 2791, 2801, 2811, 2821, 2831, 2841, 2851, 2861, 2871, 2881, 2891, 2901, 2911, 2921, 2931, 2941, 2951, 2961, 2971, 2981, 2991, 3001, 3011, 3021, 3031, 3041, 3051, 3061, 3071, 3081, 3091, 3101, 3111, 3121, 3131, 3141, 3151, 3161, 3171, 3181, 3191, 3201, 3211, 3221, 3231, 3241, 3251, 3261, 3271, 3281, 3291, 3301, 3311, 3321, 3331, 3341, 3351, 3361, 3371, 3381, 3391, 3401, 3411, 3421, 3431, 3441, 3451, 3461, 3471, 3481, 3491, 3501, 3511, 3521, 3531, 3541, 3551, 3561, 3571, 3581, 3591, 3601, 3611, 3621, 3631, 3641, 3651, 3661, 3671, 3681, 3691, 3701, 3711, 3721, 3731, 3741, 3751]","1260","1920","[960, 960, 960, 960, 960, 960, 960, 960, 960, 960, 960, 960, 960, 960, 960, 960, 960, 960, 960, 960, 960, 960, 960, 960, 960, 960, 960, 960, 960, 960, 960, 960, 960, 960, 960, 960, 960, 960, 960, 960, 960, 960, 960, 960, 960, 960, 960, 960, 960, 960, 960, 966, 969, 973, 977, 984, 988, 993, 994, 1002, 1004, 1007, 1010, 1014, 1017, 1018, 1019, 1021, 1022, 1022, 1025, 1029, 1032, 1035, 1038, 1044, 1049, 1055, 1061, 1069, 1071, 1074, 1079, 1088, 1094, 1099, 1103, 1108, 1112, 1117, 1122, 1129, 1131, 1135, 1138, 1145, 1148, 1154, 1159, 1174, 1181, 1185, 1190, 1202, 1209, 1214, 1219, 1230, 1238, 1242, 1246, 1255, 1259, 1263, 1265, 1270, 1274, 1277, 1281, 1291, 1298, 1306, 1311, 1322, 1328, 1334, 1339, 1348, 1352, 1356, 1360, 1370, 1376, 1380, 1382, 1386, 1387, 1392, 1394, 1397, 1398, 1399, 1401, 1403, 1407, 1408, 1409, 1419, 1423, 1431, 1438, 1453, 1461, 1464, 1469, 1474, 1477, 1483, 1488, 1500, 1507, 1514, 1521, 1530, 1535, 1540, 1546, 1555, 1560, 1565, 1568, 1578, 1584, 1588, 1594, 1601, 1604, 1606, 1610, 1616, 1618, 1621, 1622, 1623, 1623, 1623, 1623, 1621, 1620, 1619, 1617, 1616, 1615, 1612, 1607, 1597, 1588, 1578, 1567, 1544, 1533, 1518, 1506, 1487, 1481, 1474, 1468, 1462, 1458, 1456, 1453, 1447, 1444, 1439, 1431, 1415, 1407, 1398, 1388, 1368, 1356, 1343, 1335, 1320, 1315, 1311, 1307, 1300, 1295, 1291, 1285, 1273, 1266, 1258, 1251, 1233, 1221, 1207, 1189, 1152, 1132, 1117, 1102, 1064, 1045, 1027, 1011, 985, 975, 965, 956, 938, 931, 924, 917, 899, 890, 879, 868, 845, 833, 823, 813, 792, 781, 766, 751, 712, 694, 673, 658, 633, 624, 617, 606, 585, 575, 568, 560, 544, 538, 528, 517, 497, 486, 478, 468, 447, 433, 421, 409, 385, 375, 366, 358, 342, 334, 328, 319, 302, 295, 288, 281, 268, 261, 253, 247, 233, 229, 226, 225, 219, 216, 213, 208, 200, 196, 192, 190, 187, 187, 187, 185, 183, 183, 183, 182, 182, 182, 182, 182, 182, 182, 182, 182, 182, 182, 182, 182, 182, 182, 182, 182, 182, 182, 182, 182, 182, 182, 182, 182, 182, 182, 182, 182, 182, 182, 180, 180, 180, 180, 180, 180, 180, 180, 180, 180, 180, 180, 180, 180, 180, 180, 180, 180]","[1010, 1010, 1010, 1010, 1010, 1010, 1010, 1010, 1010, 1010, 1010, 1010, 1010, 1010, 1010, 1010, 1010, 1010, 1010, 1010, 1010, 1010, 1010, 1010, 1010, 1010, 1010, 1010, 1010, 1010, 1010, 1010, 1010, 1010, 1010, 1010, 1010, 1010, 1010, 1010, 1010, 1010, 1010, 1010, 1010, 1010, 1010, 1010, 1010, 1010, 1009, 995, 987, 979, 970, 956, 948, 941, 938, 925, 921, 914, 910, 904, 899, 896, 895, 892, 890, 888, 886, 881, 875, 872, 867, 861, 856, 848, 842, 833, 831, 826, 821, 810, 802, 796, 791, 786, 780, 775, 769, 761, 757, 752, 747, 734, 728, 720, 712, 692, 685, 680, 672, 657, 647, 639, 631, 618, 609, 603, 598, 588, 583, 577, 573, 564, 558, 553, 547, 532, 522, 511, 505, 489, 480, 474, 467, 456, 451, 446, 443, 426, 418, 411, 410, 409, 408, 406, 405, 404, 404, 404, 403, 402, 400, 400, 399, 395, 393, 390, 385, 375, 369, 368, 365, 362, 359, 355, 352, 341, 334, 329, 322, 310, 304, 296, 289, 275, 268, 257, 250, 231, 221, 210, 199, 180, 170, 161, 152, 133, 124, 114, 107, 94, 89, 85, 83, 77, 75, 72, 71, 69, 68, 67, 64, 63, 59, 57, 51, 38, 32, 26, 21, 14, 13, 12, 9, 7, 5, 5, 3, 1, 0, 0, 0, 0, 0, 0, 0, 0, 0, 0, 0, 0, 0, 0, 0, 0, 0, 0, 0, 0, 0, 0, 0, 0, 0, 0, 0, 0, 0, 0, 0, 0, 0, 0, 0, 0, 0, 0, 0, 0, 0, 0, 0, 0, 0, 0, 0, 0, 0, 0, 0, 0, 0, 0, 0, 3, 6, 8, 10, 12, 12, 12, 14, 16, 17, 19, 20, 21, 21, 21, 21, 21, 21, 22, 25, 27, 29, 31, 32, 36, 37, 38, 38, 39, 41, 41, 42, 45, 46, 47, 48, 49, 49, 52, 52, 54, 54, 54, 54, 56, 57, 57, 59, 61, 62, 63, 64, 65, 65, 65, 65, 66, 66, 66, 66, 66, 66, 66, 66, 66, 66, 66, 66, 66, 66, 66, 66, 66, 66, 66, 66, 66, 66, 66, 66, 66, 66, 66, 66, 66, 66, 66, 66, 66, 66, 67, 68, 68, 68, 68, 68, 68, 68, 68, 68, 68, 68, 68, 68, 68, 68, 68, 68]"
"Trust","Teilnehmer A hat Ihnen 2 Punkte übermittelt.","Payback","1","undefined","15","0","5","60","1080","261","5","1","1382","17","legacy","[11, 21, 31, 41, 51, 61, 71, 81, 91, 101, 111, 121, 131, 141, 151, 161, 171, 181, 191, 201, 211, 221, 231, 241, 251, 261, 271, 281, 291, 301, 311, 321, 331, 341, 351, 361, 371, 381, 391, 401, 411, 421, 431, 441, 451, 461, 471, 481, 491, 501, 511, 521, 531, 541, 551, 561, 571, 581, 591, 601, 611, 621, 631, 641, 651, 661, 671, 681, 691, 701, 711, 721, 731, 741, 751, 761, 771, 781, 791, 801, 811, 821, 831, 841, 851, 861, 871, 881, 891, 901, 911, 921, 931, 941, 951, 961, 971, 981, 991, 1001, 1011, 1021, 1031, 1041, 1051, 1061, 1071, 1081, 1091, 1101, 1111, 1121, 1131, 1141, 1151, 1161, 1171, 1181, 1191, 1201, 1211, 1221, 1231, 1241, 1251, 1261, 1271, 1281, 1291, 1301, 1311, 1321, 1331, 1341, 1351, 1361, 1371, 1381]","1260","1920","[960, 960, 960, 960, 960, 960, 960, 960, 960, 960, 959, 959, 959, 959, 957, 957, 957, 957, 957, 957, 957, 955, 950, 944, 936, 923, 889, 870, 852, 839, 821, 814, 809, 803, 795, 792, 788, 783, 776, 771, 767, 761, 747, 738, 730, 721, 703, 694, 686, 680, 663, 656, 647, 638, 617, 601, 583, 561, 521, 508, 498, 490, 475, 470, 465, 461, 448, 443, 436, 431, 423, 419, 413, 409, 399, 394, 389, 382, 370, 365, 359, 355, 349, 345, 342, 339, 334, 331, 330, 328, 324, 323, 322, 320, 319, 317, 316, 315, 312, 311, 309, 308, 307, 306, 306, 305, 303, 302, 300, 299, 296, 295, 293, 292, 288, 286, 282, 278, 271, 267, 264, 263, 260, 260, 259, 259, 257, 257, 257, 256, 256, 256, 256, 256, 256, 256, 256, 256]","[1010, 1010, 1010, 1010, 1010, 1010, 1010, 1010, 1010, 1010, 1011, 1011, 1011, 1011, 1011, 1011, 1011, 1011, 1011, 1011, 1011, 1008, 988, 973, 958, 936, 890, 869, 849, 836, 821, 813, 810, 804, 798, 794, 793, 788, 781, 777, 774, 768, 758, 750, 744, 737, 721, 715, 709, 704, 690, 684, 675, 665, 635, 613, 587, 559, 510, 495, 485, 477, 462, 455, 449, 444, 430, 425, 417, 412, 402, 398, 391, 385, 371, 365, 356, 346, 330, 322, 315, 310, 302, 297, 293, 288, 280, 276, 273, 270, 266, 264, 260, 258, 253, 251, 249, 245, 241, 238, 236, 233, 229, 228, 226, 224, 217, 214, 210, 209, 200, 198, 195, 192, 183, 179, 173, 165, 155, 151, 147, 144, 139, 138, 137, 137, 133, 133, 133, 131, 131, 131, 131, 131, 131, 131, 131, 131]"
"Trust","Teilnehmer A hat Ihnen 2 Punkte übermittelt.","Payback","0","undefined","16","0","5","60","1080","191","10","2","966","17","legacy","[11, 21, 31, 41, 51, 61, 71, 81, 91, 101, 111, 121, 131, 141, 151, 161, 171, 181, 191, 201, 211, 221, 231, 241, 251, 261, 271, 281, 291, 301, 311, 321, 331, 341, 351, 361, 371, 381, 391, 401, 411, 421, 431, 441, 451, 461, 471, 481, 491, 501, 511, 521, 531, 541, 551, 561, 571, 581, 591, 601, 611, 621, 631, 641, 651, 661, 671, 681, 691, 701, 711, 721, 731, 741, 751, 761, 771, 781, 791, 801, 811, 821, 831, 841, 851, 861, 871, 881, 891, 901, 911, 921, 931, 941, 951, 961]","1260","1920","[960, 960, 960, 960, 960, 960, 960, 960, 960, 960, 960, 960, 960, 959, 966, 975, 989, 1009, 1069, 1098, 1113, 1125, 1135, 1138, 1142, 1146, 1157, 1162, 1168, 1176, 1184, 1190, 1194, 1198, 1205, 1209, 1215, 1217, 1239, 1255, 1269, 1275, 1292, 1299, 1305, 1312, 1322, 1329, 1336, 1343, 1354, 1360, 1365, 1370, 1380, 1383, 1389, 1396, 1412, 1418, 1427, 1435, 1453, 1465, 1471, 1483, 1503, 1516, 1526, 1535, 1556, 1565, 1574, 1586, 1607, 1619, 1631, 1640, 1651, 1655, 1661, 1665, 1671, 1674, 1676, 1679, 1684, 1684, 1686, 1686, 1688, 1688, 1688, 1688, 1688, 1688]","[1010, 1010, 1010, 1010, 1010, 1010, 1010, 1010, 1010, 1010, 1010, 1010, 1010, 1008, 997, 990, 980, 964, 915, 892, 878, 870, 860, 855, 849, 844, 832, 826, 820, 814, 803, 797, 792, 786, 770, 760, 745, 727, 670, 650, 634, 625, 606, 596, 587, 578, 558, 548, 537, 525, 506, 496, 486, 476, 452, 442, 430, 417, 395, 383, 372, 361, 336, 322, 311, 297, 266, 253, 241, 231, 206, 196, 187, 178, 158, 146, 138, 129, 118, 112, 105, 99, 90, 86, 84, 79, 72, 72, 70, 69, 66, 66, 66, 66, 66, 66]"
"NoTrust","Teilnehmer A hat Ihnen keine 2 Punkte übermittelt.","Payback","0","undefined","17","0","5","60","1080","191","0","2","966","17","legacy","[11, 21, 31, 41, 51, 61, 71, 81, 91, 101, 111, 121, 131, 141, 151, 161, 171, 181, 191, 201, 211, 221, 231, 241, 251, 261, 271, 281, 291, 301, 311, 321, 331, 341, 351, 361, 371, 381, 391, 401, 411, 421, 431, 441, 451, 461, 471, 481, 491, 501, 511, 521, 531, 541, 551, 561, 571, 581, 591, 601, 611, 621, 631, 641, 651, 661, 671, 681, 691, 701, 711, 721, 731, 741, 751, 761, 771, 781, 791, 801, 811, 821, 831, 841, 851, 861, 871, 881, 891, 901, 911, 921, 931, 941, 951, 961]","1260","1920","[960, 960, 960, 960, 960, 960, 960, 960, 960, 960, 960, 960, 960, 959, 966, 975, 989, 1009, 1069, 1098, 1113, 1125, 1135, 1138, 1142, 1146, 1157, 1162, 1168, 1176, 1184, 1190, 1194, 1198, 1205, 1209, 1215, 1217, 1239, 1255, 1269, 1275, 1292, 1299, 1305, 1312, 1322, 1329, 1336, 1343, 1354, 1360, 1365, 1370, 1380, 1383, 1389, 1396, 1412, 1418, 1427, 1435, 1453, 1465, 1471, 1483, 1503, 1516, 1526, 1535, 1556, 1565, 1574, 1586, 1607, 1619, 1631, 1640, 1651, 1655, 1661, 1665, 1671, 1674, 1676, 1679, 1684, 1684, 1686, 1686, 1688, 1688, 1688, 1688, 1688, 1688]","[1010, 1010, 1010, 1010, 1010, 1010, 1010, 1010, 1010, 1010, 1010, 1010, 1010, 1008, 997, 990, 980, 964, 915, 892, 878, 870, 860, 855, 849, 844, 832, 826, 820, 814, 803, 797, 792, 786, 770, 760, 745, 727, 670, 650, 634, 625, 606, 596, 587, 578, 558, 548, 537, 525, 506, 496, 486, 476, 452, 442, 430, 417, 395, 383, 372, 361, 336, 322, 311, 297, 266, 253, 241, 231, 206, 196, 187, 178, 158, 146, 138, 129, 118, 112, 105, 99, 90, 86, 84, 79, 72, 72, 70, 69, 66, 66, 66, 66, 66, 66]"
"Promise","Wie oft werden Sie die Hälfte zurückgeben?","Promise","0","undefined","17","0","6","60","1080","251","0","2","2473","17","legacy","[11, 21, 31, 41, 51, 61, 71, 81, 91, 101, 111, 121, 131, 141, 151, 161, 171, 181, 191, 201, 211, 221, 231, 241, 251, 261, 271, 281, 291, 301, 311, 321, 331, 341, 351, 361, 371, 381, 391, 401, 411, 421, 431, 441, 451, 461, 471, 481, 491, 501, 511, 521, 531, 541, 551, 561, 571, 581, 591, 601, 611, 621, 631, 641, 651, 661, 671, 681, 691, 701, 711, 721, 731, 741, 751, 761, 771, 781, 791, 801, 811, 821, 831, 841, 851, 861, 871, 881, 891, 901, 911, 921, 931, 941, 951, 961, 971, 981, 991, 1001, 1011, 1021, 1031, 1041, 1051, 1061, 1071, 1081, 1091, 1101, 1111, 1121, 1131, 1141, 1151, 1161, 1171, 1181, 1191, 1201, 1211, 1221, 1231, 1241, 1251, 1261, 1271, 1281, 1291, 1301, 1311, 1321, 1331, 1341, 1351, 1361, 1371, 1381, 1391, 1401, 1411, 1421, 1431, 1441, 1451, 1461, 1471, 1481, 1491, 1501, 1511, 1521, 1531, 1541, 1551, 1561, 1571, 1581, 1591, 1601, 1611, 1621, 1631, 1641, 1651, 1661, 1671, 1681, 1691, 1701, 1711, 1721, 1731, 1741, 1751, 1761, 1771, 1781, 1791, 1801, 1811, 1821, 1831, 1841, 1851, 1861, 1871, 1881, 1891, 1901, 1911, 1921, 1931, 1941, 1951, 1961, 1971, 1981, 1991, 2001, 2011, 2021, 2031, 2041, 2051, 2061, 2071, 2081, 2091, 2101, 2111, 2121, 2131, 2141, 2151, 2161, 2171, 2181, 2191, 2201, 2211, 2221, 2231, 2241, 2251, 2261, 2271, 2281, 2291, 2301, 2311, 2321, 2331, 2341, 2351, 2361, 2371, 2381, 2391, 2401, 2411, 2421, 2431, 2441, 2451, 2461, 2471]","1260","1920","[960, 960, 960, 960, 960, 960, 960, 958, 956, 956, 956, 956, 956, 956, 956, 956, 956, 963, 970, 984, 993, 1000, 1007, 1033, 1051, 1076, 1102, 1139, 1155, 1171, 1188, 1210, 1224, 1239, 1257, 1289, 1304, 1314, 1322, 1337, 1344, 1353, 1360, 1371, 1377, 1385, 1390, 1402, 1408, 1414, 1422, 1437, 1445, 1453, 1460, 1471, 1476, 1481, 1484, 1495, 1499, 1504, 1509, 1520, 1523, 1530, 1535, 1544, 1550, 1555, 1559, 1569, 1576, 1580, 1584, 1593, 1597, 1601, 1604, 1612, 1616, 1617, 1620, 1624, 1625, 1626, 1627, 1629, 1630, 1630, 1631, 1631, 1631, 1631, 1631, 1631, 1631, 1631, 1631, 1631, 1631, 1631, 1631, 1631, 1631, 1631, 1631, 1631, 1631, 1631, 1631, 1625, 1604, 1587, 1566, 1543, 1495, 1473, 1456, 1439, 1404, 1392, 1376, 1359, 1314, 1278, 1247, 1216, 1147, 1113, 1080, 1044, 985, 966, 946, 931, 904, 893, 882, 873, 850, 840, 828, 817, 795, 786, 775, 763, 736, 721, 704, 682, 645, 628, 611, 595, 565, 554, 542, 531, 508, 497, 489, 480, 465, 457, 451, 443, 430, 426, 422, 417, 414, 414, 414, 414, 419, 429, 442, 456, 475, 487, 498, 513, 552, 582, 615, 649, 746, 796, 862, 923, 1064, 1141, 1210, 1282, 1396, 1444, 1484, 1523, 1597, 1631, 1660, 1681, 1739, 1757, 1783, 1808, 1866, 1901, 1919, 1919, 1919, 1919, 1919, 1919, 1919, 1919, 1919, 1919, 1919, 1919, 1919, 1919, 1919, 1919, 1919, 1919, 1919, 1919, 1918, 1915, 1908, 1904, 1896, 1888, 1871, 1864, 1861, 1859, 1856, 1856, 1856, 1856, 1856, 1856, 1856]","[1010, 1010, 1010, 1010, 1010, 1010, 1011, 1012, 1013, 1013, 1013, 1013, 1013, 1013, 1013, 1013, 1012, 1006, 997, 984, 976, 971, 963, 944, 929, 910, 887, 854, 838, 822, 808, 786, 770, 753, 734, 698, 686, 677, 669, 651, 641, 632, 622, 607, 598, 588, 579, 563, 555, 546, 536, 514, 504, 490, 481, 461, 452, 444, 438, 417, 411, 403, 394, 376, 369, 360, 352, 334, 325, 316, 309, 291, 282, 275, 269, 254, 248, 242, 236, 224, 221, 218, 214, 209, 207, 204, 203, 201, 200, 200, 199, 199, 199, 199, 199, 199, 199, 199, 199, 199, 199, 199, 199, 199, 199, 199, 199, 199, 199, 199, 199, 199, 203, 204, 208, 210, 210, 210, 210, 210, 210, 210, 210, 210, 210, 210, 210, 210, 210, 210, 210, 210, 210, 210, 210, 210, 210, 210, 210, 210, 210, 210, 210, 210, 210, 210, 210, 210, 210, 210, 210, 210, 210, 210, 210, 210, 210, 210, 210, 211, 217, 221, 222, 226, 233, 237, 241, 248, 260, 268, 275, 287, 306, 317, 330, 344, 375, 397, 412, 427, 446, 453, 460, 466, 479, 482, 482, 484, 467, 455, 435, 416, 380, 358, 338, 316, 283, 261, 244, 223, 189, 177, 165, 156, 131, 124, 113, 106, 91, 84, 79, 74, 65, 61, 57, 54, 51, 50, 50, 50, 50, 50, 50, 50, 50, 50, 50, 50, 50, 50, 50, 50, 51, 52, 55, 57, 61, 62, 64, 65, 65, 65, 65, 65, 65, 65, 65]"
"Trust","Teilnehmer A hat Ihnen 2 Punkte übermittelt.","Payback","0","undefined","18","0","6","60","1080","231","10","2","1838","17","legacy","[11, 21, 31, 41, 51, 61, 71, 81, 91, 101, 111, 121, 131, 141, 151, 161, 171, 181, 191, 201, 211, 221, 231, 241, 251, 261, 271, 281, 291, 301, 311, 321, 331, 341, 351, 361, 371, 381, 391, 401, 411, 421, 431, 441, 451, 461, 471, 481, 491, 501, 511, 521, 531, 541, 551, 561, 571, 581, 591, 601, 611, 621, 631, 641, 651, 661, 671, 681, 691, 701, 711, 721, 731, 741, 751, 761, 771, 781, 791, 801, 811, 821, 831, 841, 851, 861, 871, 881, 891, 901, 911, 921, 931, 941, 951, 961, 971, 981, 991, 1001, 1011, 1021, 1031, 1041, 1051, 1061, 1071, 1081, 1091, 1101, 1111, 1121, 1131, 1141, 1151, 1161, 1171, 1181, 1191, 1201, 1211, 1221, 1231, 1241, 1251, 1261, 1271, 1281, 1291, 1301, 1311, 1321, 1331, 1341, 1351, 1361, 1371, 1381, 1391, 1401, 1411, 1421, 1431, 1441, 1451, 1461, 1471, 1481, 1491, 1501, 1511, 1521, 1531, 1541, 1551, 1561, 1571, 1581, 1591, 1601, 1611, 1621, 1631, 1641, 1651, 1661, 1671, 1681, 1691, 1701, 1711, 1721, 1731, 1741, 1751, 1761, 1771, 1781, 1791, 1801, 1811, 1821, 1831]","1260","1920","[960, 960, 960, 960, 960, 960, 960, 959, 957, 956, 955, 953, 953, 953, 953, 953, 953, 951, 947, 946, 942, 941, 935, 930, 924, 918, 906, 902, 897, 894, 887, 884, 879, 877, 866, 861, 856, 852, 845, 840, 837, 834, 823, 817, 810, 804, 793, 788, 781, 774, 759, 751, 745, 738, 731, 729, 728, 728, 726, 726, 726, 726, 726, 726, 727, 729, 734, 737, 739, 742, 749, 752, 756, 759, 767, 769, 772, 773, 777, 778, 778, 779, 779, 779, 779, 779, 779, 779, 779, 778, 774, 772, 768, 763, 753, 746, 738, 726, 703, 693, 679, 669, 648, 639, 630, 623, 608, 603, 599, 595, 590, 589, 588, 586, 586, 587, 591, 594, 602, 610, 615, 622, 641, 653, 667, 685, 736, 772, 802, 836, 884, 901, 916, 933, 957, 968, 983, 997, 1025, 1039, 1051, 1064, 1089, 1104, 1125, 1150, 1192, 1215, 1241, 1265, 1307, 1327, 1343, 1363, 1393, 1408, 1420, 1434, 1456, 1471, 1490, 1508, 1557, 1582, 1603, 1618, 1640, 1647, 1657, 1665, 1683, 1693, 1698, 1704, 1709, 1709, 1709, 1710, 1710, 1710, 1710, 1710, 1710]","[1010, 1010, 1010, 1010, 1010, 1010, 1011, 1011, 1011, 1011, 1011, 1012, 1012, 1012, 1012, 1012, 1012, 1005, 987, 976, 960, 945, 911, 897, 885, 871, 844, 833, 823, 815, 802, 797, 791, 786, 773, 768, 763, 760, 754, 750, 747, 744, 735, 730, 725, 719, 708, 703, 697, 688, 671, 661, 654, 646, 637, 635, 632, 631, 629, 629, 629, 627, 622, 618, 614, 609, 598, 593, 588, 583, 567, 559, 551, 542, 525, 520, 515, 512, 500, 497, 492, 487, 475, 472, 470, 467, 461, 459, 457, 455, 450, 446, 441, 437, 428, 423, 415, 406, 387, 379, 368, 357, 343, 334, 326, 318, 302, 294, 285, 279, 267, 263, 260, 258, 253, 249, 246, 241, 232, 228, 224, 219, 212, 207, 203, 198, 190, 188, 185, 180, 174, 173, 172, 171, 168, 166, 165, 161, 159, 156, 155, 155, 155, 155, 153, 153, 153, 153, 150, 147, 147, 147, 147, 147, 147, 147, 147, 147, 143, 140, 138, 135, 131, 126, 123, 122, 120, 118, 117, 116, 113, 112, 111, 110, 108, 108, 108, 108, 108, 108, 108, 108, 108]"
"Trust","Teilnehmer A hat Ihnen 2 Punkte übermittelt.","Payback","0","undefined","19","0","6","60","1080","261","10","2","1006","17","legacy","[11, 21, 31, 41, 51, 61, 71, 81, 91, 101, 111, 121, 131, 141, 151, 161, 171, 181, 191, 201, 211, 221, 231, 241, 251, 261, 271, 281, 291, 301, 311, 321, 331, 341, 351, 361, 371, 381, 391, 401, 411, 421, 431, 441, 451, 461, 471, 481, 491, 501, 511, 521, 531, 541, 551, 561, 571, 581, 591, 601, 611, 621, 631, 641, 651, 661, 671, 681, 691, 701, 711, 721, 731, 741, 751, 761, 771, 781, 791, 801, 811, 821, 831, 841, 851, 861, 871, 881, 891, 901, 911, 921, 931, 941, 951, 961, 971, 981, 991, 1001]","1260","1920","[960, 960, 960, 960, 960, 960, 960, 960, 960, 960, 960, 960, 960, 960, 960, 960, 960, 961, 963, 965, 966, 967, 970, 972, 973, 976, 978, 980, 983, 986, 999, 1007, 1023, 1036, 1062, 1075, 1088, 1100, 1137, 1159, 1179, 1204, 1247, 1269, 1284, 1301, 1334, 1351, 1376, 1402, 1463, 1504, 1538, 1570, 1629, 1657, 1690, 1720, 1766, 1790, 1810, 1827, 1855, 1864, 1869, 1875, 1886, 1891, 1895, 1899, 1905, 1909, 1911, 1914, 1919, 1919, 1919, 1919, 1919, 1919, 1919, 1919, 1919, 1919, 1919, 1919, 1919, 1919, 1919, 1919, 1919, 1919, 1919, 1919, 1919, 1919, 1919, 1919, 1919, 1919]","[1010, 1010, 1010, 1010, 1010, 1010, 1010, 1010, 1010, 1010, 1010, 1010, 1010, 1010, 1009, 1007, 1007, 1005, 1003, 999, 996, 989, 968, 955, 944, 931, 912, 901, 890, 877, 850, 834, 811, 796, 770, 757, 745, 736, 709, 693, 679, 662, 633, 617, 606, 591, 564, 551, 535, 516, 473, 449, 427, 409, 368, 351, 329, 311, 284, 271, 259, 248, 228, 221, 216, 209, 195, 188, 182, 176, 165, 159, 155, 149, 138, 132, 128, 124, 117, 114, 112, 108, 101, 98, 93, 90, 84, 81, 79, 77, 76, 75, 75, 74, 74, 74, 74, 74, 74, 74]"
"Trust","Teilnehmer A hat Ihnen 2 Punkte übermittelt.","Payback","1","undefined","20","0","6","60","1080","301","5","1","1197","17","legacy","[11, 21, 31, 41, 51, 61, 71, 81, 91, 101, 111, 121, 131, 141, 151, 161, 171, 181, 191, 201, 211, 221, 231, 241, 251, 261, 271, 281, 291, 301, 311, 321, 331, 341, 351, 361, 371, 381, 391, 401, 411, 421, 431, 441, 451, 461, 471, 481, 491, 501, 511, 521, 531, 541, 551, 561, 571, 581, 591, 601, 611, 621, 631, 641, 651, 661, 671, 681, 691, 701, 711, 721, 731, 741, 751, 761, 771, 781, 791, 801, 811, 821, 831, 841, 851, 861, 871, 881, 891, 901, 911, 921, 931, 941, 951, 961, 971, 981, 991, 1001, 1011, 1021, 1031, 1041, 1051, 1061, 1071, 1081, 1091, 1101, 1111, 1121, 1131, 1141, 1151, 1161, 1171, 1181, 1191]","1260","1920","[960, 960, 960, 960, 960, 960, 960, 960, 960, 960, 960, 960, 960, 960, 960, 960, 960, 960, 960, 960, 960, 960, 960, 960, 960, 960, 960, 960, 960, 955, 942, 934, 926, 917, 904, 896, 887, 880, 864, 853, 848, 841, 829, 823, 817, 812, 802, 797, 791, 786, 771, 764, 755, 748, 727, 718, 704, 692, 666, 650, 640, 630, 612, 602, 593, 585, 567, 560, 552, 546, 531, 525, 519, 514, 503, 498, 492, 488, 478, 473, 467, 460, 442, 432, 423, 413, 398, 389, 380, 373, 352, 342, 331, 324, 313, 308, 305, 301, 291, 286, 283, 281, 273, 271, 270, 269, 268, 268, 268, 268, 268, 268, 268, 268, 268, 268, 268, 268, 268]","[1010, 1010, 1010, 1010, 1010, 1010, 1010, 1010, 1010, 1010, 1010, 1010, 1010, 1010, 1010, 1010, 1010, 1010, 1010, 1010, 1010, 1010, 1010, 1010, 1010, 1004, 977, 962, 944, 914, 869, 841, 816, 795, 765, 749, 728, 713, 681, 660, 647, 631, 607, 597, 587, 579, 560, 552, 542, 534, 515, 507, 495, 487, 465, 456, 446, 437, 418, 406, 398, 393, 377, 368, 360, 353, 335, 328, 321, 314, 298, 291, 283, 278, 265, 260, 254, 251, 242, 238, 233, 227, 211, 204, 195, 187, 175, 168, 160, 153, 139, 132, 125, 120, 112, 108, 106, 101, 95, 92, 92, 91, 88, 88, 88, 87, 87, 87, 87, 87, 87, 87, 87, 87, 87, 87, 87, 87, 87]"
"Promise","Wie oft werden Sie die Hälfte zurückgeben?","Promise","0","undefined","20","0","7","60","1080","201","5","2","1984","17","legacy","[11, 21, 31, 41, 51, 61, 71, 81, 91, 101, 111, 121, 131, 141, 151, 161, 171, 181, 191, 201, 211, 221, 231, 241, 251, 261, 271, 281, 291, 301, 311, 321, 331, 341, 351, 361, 371, 381, 391, 401, 411, 421, 431, 441, 451, 461, 471, 481, 491, 501, 511, 521, 531, 541, 551, 561, 571, 581, 591, 601, 611, 621, 631, 641, 651, 661, 671, 681, 691, 701, 711, 721, 731, 741, 751, 761, 771, 781, 791, 801, 811, 821, 831, 841, 851, 861, 871, 881, 891, 901, 911, 921, 931, 941, 951, 961, 971, 981, 991, 1001, 1011, 1021, 1031, 1041, 1051, 1061, 1071, 1081, 1091, 1101, 1111, 1121, 1131, 1141, 1151, 1161, 1171, 1181, 1191, 1201, 1211, 1221, 1231, 1241, 1251, 1261, 1271, 1281, 1291, 1301, 1311, 1321, 1331, 1341, 1351, 1361, 1371, 1381, 1391, 1401, 1411, 1421, 1431, 1441, 1451, 1461, 1471, 1481, 1491, 1501, 1511, 1521, 1531, 1541, 1551, 1561, 1571, 1581, 1591, 1601, 1611, 1621, 1631, 1641, 1651, 1661, 1671, 1681, 1691, 1701, 1711, 1721, 1731, 1741, 1751, 1761, 1771, 1781, 1791, 1801, 1811, 1821, 1831, 1841, 1851, 1861, 1871, 1881, 1891, 1901, 1911, 1921, 1931, 1941, 1951, 1961, 1971, 1981]","1260","1920","[960, 960, 960, 960, 960, 960, 960, 960, 960, 960, 960, 960, 962, 965, 966, 970, 975, 980, 986, 996, 1000, 1005, 1008, 1017, 1020, 1023, 1030, 1043, 1055, 1064, 1075, 1096, 1109, 1128, 1145, 1177, 1192, 1209, 1224, 1244, 1252, 1259, 1264, 1271, 1275, 1280, 1283, 1291, 1296, 1302, 1308, 1320, 1329, 1336, 1342, 1358, 1365, 1372, 1379, 1396, 1401, 1409, 1416, 1429, 1436, 1443, 1448, 1458, 1464, 1469, 1472, 1485, 1488, 1492, 1497, 1502, 1508, 1511, 1514, 1524, 1529, 1532, 1538, 1551, 1556, 1561, 1565, 1575, 1583, 1589, 1596, 1613, 1621, 1629, 1639, 1653, 1659, 1663, 1666, 1671, 1671, 1671, 1672, 1672, 1672, 1672, 1673, 1673, 1673, 1673, 1674, 1676, 1677, 1679, 1679, 1681, 1681, 1681, 1681, 1681, 1681, 1681, 1681, 1681, 1681, 1681, 1681, 1681, 1680, 1679, 1675, 1661, 1655, 1648, 1643, 1638, 1635, 1634, 1631, 1627, 1622, 1618, 1614, 1600, 1588, 1574, 1549, 1479, 1443, 1401, 1362, 1298, 1268, 1253, 1239, 1224, 1221, 1220, 1220, 1220, 1220, 1220, 1220, 1220, 1219, 1219, 1229, 1265, 1299, 1337, 1376, 1460, 1501, 1540, 1582, 1646, 1666, 1678, 1689, 1697, 1698, 1698, 1698, 1698, 1698, 1698, 1698, 1698, 1698, 1698, 1698, 1698, 1698, 1698, 1698, 1698, 1698, 1698]","[1010, 1010, 1010, 1010, 1010, 1010, 1010, 1010, 1010, 1010, 1009, 1001, 997, 992, 989, 980, 971, 962, 952, 925, 911, 897, 880, 852, 840, 827, 811, 776, 752, 729, 705, 653, 626, 593, 563, 499, 474, 447, 429, 402, 392, 385, 377, 366, 359, 351, 346, 332, 325, 315, 308, 291, 282, 275, 267, 253, 246, 241, 235, 224, 220, 213, 209, 199, 194, 190, 186, 178, 174, 171, 168, 160, 157, 155, 151, 147, 144, 141, 139, 132, 129, 127, 123, 118, 116, 113, 112, 108, 103, 102, 98, 95, 93, 92, 89, 87, 86, 86, 84, 84, 83, 83, 83, 83, 83, 83, 83, 83, 83, 83, 83, 83, 83, 83, 83, 83, 83, 83, 83, 83, 83, 83, 83, 83, 83, 83, 83, 83, 83, 83, 83, 85, 87, 89, 90, 91, 93, 93, 94, 94, 94, 94, 94, 93, 93, 90, 88, 88, 88, 88, 88, 88, 88, 88, 88, 88, 88, 88, 88, 88, 88, 88, 88, 88, 88, 88, 88, 88, 88, 88, 88, 88, 88, 88, 88, 88, 88, 88, 88, 88, 88, 88, 88, 88, 88, 88, 88, 88, 88, 88, 88, 88, 88, 88, 88, 88, 88, 88]"
"Trust","Teilnehmer A hat Ihnen 2 Punkte übermittelt.","Payback","1","undefined","21","0","7","60","1080","481","5","1","1772","17","legacy","[11, 21, 31, 41, 51, 61, 71, 81, 91, 101, 111, 121, 131, 141, 151, 161, 171, 181, 191, 201, 211, 221, 231, 241, 251, 261, 271, 281, 291, 301, 311, 321, 331, 341, 351, 361, 371, 381, 391, 401, 411, 421, 431, 441, 451, 461, 471, 481, 491, 501, 511, 521, 531, 541, 551, 561, 571, 581, 591, 601, 611, 621, 631, 641, 651, 661, 671, 681, 691, 701, 711, 721, 731, 741, 751, 761, 771, 781, 791, 801, 811, 821, 831, 841, 851, 861, 871, 881, 891, 901, 911, 921, 931, 941, 951, 961, 971, 981, 991, 1001, 1011, 1021, 1031, 1041, 1051, 1061, 1071, 1081, 1091, 1101, 1111, 1121, 1131, 1141, 1151, 1161, 1171, 1181, 1191, 1201, 1211, 1221, 1231, 1241, 1251, 1261, 1271, 1281, 1291, 1301, 1311, 1321, 1331, 1341, 1351, 1361, 1371, 1381, 1391, 1401, 1411, 1421, 1431, 1441, 1451, 1461, 1471, 1481, 1491, 1501, 1511, 1521, 1531, 1541, 1551, 1561, 1571, 1581, 1591, 1601, 1611, 1621, 1631, 1641, 1651, 1661, 1671, 1681, 1691, 1701, 1711, 1721, 1731, 1741, 1751, 1761, 1771]","1260","1920","[960, 960, 960, 960, 960, 960, 960, 960, 960, 960, 960, 960, 960, 960, 960, 960, 960, 960, 960, 960, 960, 960, 960, 960, 960, 960, 960, 960, 960, 960, 960, 960, 960, 960, 960, 962, 963, 966, 967, 970, 971, 976, 979, 981, 984, 989, 993, 997, 1001, 1010, 1014, 1017, 1022, 1030, 1035, 1040, 1046, 1054, 1059, 1064, 1068, 1078, 1082, 1086, 1089, 1092, 1092, 1092, 1092, 1092, 1092, 1091, 1089, 1085, 1081, 1076, 1071, 1057, 1049, 1038, 1025, 1001, 987, 977, 961, 928, 912, 896, 878, 844, 826, 810, 799, 772, 759, 744, 731, 704, 691, 679, 664, 640, 624, 604, 593, 563, 549, 536, 521, 497, 487, 479, 473, 459, 453, 449, 444, 433, 427, 423, 419, 410, 406, 402, 397, 384, 378, 372, 364, 345, 336, 325, 315, 300, 297, 292, 288, 282, 278, 274, 272, 262, 255, 250, 246, 239, 236, 235, 233, 230, 228, 228, 227, 225, 224, 224, 223, 223, 223, 223, 223, 223, 223, 223, 223, 223, 223, 223, 223, 223, 223, 223, 223, 223, 223, 223, 223]","[1010, 1010, 1010, 1010, 1010, 1010, 1010, 1010, 1010, 1010, 1010, 1010, 1010, 1010, 1010, 1010, 1010, 1010, 1010, 1010, 1010, 1010, 1010, 1010, 1010, 1010, 1010, 1010, 1010, 1010, 1010, 1010, 1010, 1009, 1009, 1008, 1006, 1001, 998, 993, 990, 979, 973, 969, 963, 948, 941, 932, 925, 907, 897, 890, 880, 864, 856, 846, 839, 821, 814, 805, 798, 781, 773, 763, 754, 740, 733, 725, 718, 704, 697, 690, 683, 665, 656, 645, 635, 608, 592, 576, 551, 517, 498, 483, 463, 415, 393, 375, 352, 313, 292, 274, 264, 232, 219, 207, 196, 174, 161, 149, 137, 118, 107, 94, 87, 67, 60, 53, 46, 36, 33, 32, 30, 26, 25, 25, 23, 22, 22, 21, 21, 20, 20, 20, 20, 20, 20, 20, 20, 20, 20, 20, 20, 21, 22, 23, 23, 24, 24, 25, 26, 28, 31, 32, 33, 35, 36, 37, 37, 39, 39, 39, 40, 41, 42, 42, 42, 42, 42, 42, 42, 42, 42, 42, 42, 42, 42, 42, 42, 42, 42, 42, 42, 42, 42, 42, 42]"
"Trust","Teilnehmer A hat Ihnen 2 Punkte übermittelt.","Payback","0","undefined","22","0","7","60","1080","261","10","2","1356","17","legacy","[11, 21, 31, 41, 51, 61, 71, 81, 91, 101, 111, 121, 131, 141, 151, 161, 171, 181, 191, 201, 211, 221, 231, 241, 251, 261, 271, 281, 291, 301, 311, 321, 331, 341, 351, 361, 371, 381, 391, 401, 411, 421, 431, 441, 451, 461, 471, 481, 491, 501, 511, 521, 531, 541, 551, 561, 571, 581, 591, 601, 611, 621, 631, 641, 651, 661, 671, 681, 691, 701, 711, 721, 731, 741, 751, 761, 771, 781, 791, 801, 811, 821, 831, 841, 851, 861, 871, 881, 891, 901, 911, 921, 931, 941, 951, 961, 971, 981, 991, 1001, 1011, 1021, 1031, 1041, 1051, 1061, 1071, 1081, 1091, 1101, 1111, 1121, 1131, 1141, 1151, 1161, 1171, 1181, 1191, 1201, 1211, 1221, 1231, 1241, 1251, 1261, 1271, 1281, 1291, 1301, 1311, 1321, 1331, 1341, 1351]","1260","1920","[960, 960, 960, 960, 960, 960, 960, 960, 960, 960, 960, 960, 960, 960, 960, 960, 960, 960, 960, 960, 962, 972, 983, 995, 1013, 1050, 1066, 1082, 1097, 1115, 1130, 1140, 1151, 1172, 1180, 1187, 1192, 1203, 1207, 1211, 1215, 1223, 1228, 1233, 1239, 1249, 1254, 1259, 1265, 1275, 1280, 1287, 1292, 1303, 1310, 1316, 1322, 1331, 1334, 1337, 1341, 1347, 1350, 1354, 1357, 1363, 1367, 1371, 1373, 1382, 1386, 1388, 1391, 1397, 1400, 1403, 1406, 1415, 1418, 1422, 1426, 1440, 1449, 1458, 1466, 1481, 1493, 1500, 1507, 1523, 1532, 1539, 1544, 1558, 1566, 1573, 1580, 1591, 1597, 1602, 1606, 1616, 1619, 1624, 1626, 1634, 1637, 1642, 1647, 1654, 1657, 1662, 1666, 1677, 1682, 1687, 1691, 1699, 1703, 1708, 1710, 1715, 1717, 1720, 1723, 1727, 1728, 1730, 1732, 1734, 1734, 1734, 1734, 1734, 1734]","[1010, 1010, 1010, 1010, 1010, 1010, 1010, 1010, 1010, 1010, 1010, 1010, 1010, 1010, 1010, 1010, 1010, 1010, 1010, 1010, 1011, 1005, 996, 983, 960, 912, 887, 860, 832, 791, 764, 748, 731, 703, 692, 684, 680, 668, 663, 657, 652, 641, 634, 627, 620, 608, 602, 597, 590, 580, 573, 564, 558, 544, 535, 529, 521, 511, 507, 504, 499, 492, 487, 484, 482, 473, 469, 464, 462, 451, 447, 445, 440, 434, 430, 427, 423, 413, 407, 404, 397, 384, 375, 368, 361, 346, 335, 327, 318, 300, 291, 285, 276, 262, 256, 249, 244, 235, 230, 227, 223, 214, 211, 209, 207, 201, 199, 196, 192, 185, 182, 178, 175, 167, 164, 160, 156, 149, 145, 140, 137, 131, 126, 121, 119, 112, 110, 107, 104, 101, 100, 100, 100, 100, 100]"
"Trust","Teilnehmer A hat Ihnen 2 Punkte übermittelt.","Payback","0","undefined","23","0","7","60","1080","311","10","2","2550","17","legacy","[11, 21, 31, 41, 51, 61, 71, 81, 91, 101, 111, 121, 131, 141, 151, 161, 171, 181, 191, 201, 211, 221, 231, 241, 251, 261, 271, 281, 291, 301, 311, 321, 331, 341, 351, 361, 371, 381, 391, 401, 411, 421, 431, 441, 451, 461, 471, 481, 491, 501, 511, 521, 531, 541, 551, 561, 571, 581, 591, 601, 611, 621, 631, 641, 651, 661, 671, 681, 691, 701, 711, 721, 731, 741, 751, 761, 771, 781, 791, 801, 811, 821, 831, 841, 851, 861, 871, 881, 891, 901, 911, 921, 931, 941, 951, 961, 971, 981, 991, 1001, 1011, 1021, 1031, 1041, 1051, 1061, 1071, 1081, 1091, 1101, 1111, 1121, 1131, 1141, 1151, 1161, 1171, 1181, 1191, 1201, 1211, 1221, 1231, 1241, 1251, 1261, 1271, 1281, 1291, 1301, 1311, 1321, 1331, 1341, 1351, 1361, 1371, 1381, 1391, 1401, 1411, 1421, 1431, 1441, 1451, 1461, 1471, 1481, 1491, 1501, 1511, 1521, 1531, 1541, 1551, 1561, 1571, 1581, 1591, 1601, 1611, 1621, 1631, 1641, 1651, 1661, 1671, 1681, 1691, 1701, 1711, 1721, 1731, 1741, 1751, 1761, 1771, 1781, 1791, 1801, 1811, 1821, 1831, 1841, 1851, 1861, 1871, 1881, 1891, 1901, 1911, 1921, 1931, 1941, 1951, 1961, 1971, 1981, 1991, 2001, 2011, 2021, 2031, 2041, 2051, 2061, 2071, 2081, 2091, 2101, 2111, 2121, 2131, 2141, 2151, 2161, 2171, 2181, 2191, 2201, 2211, 2221, 2231, 2241, 2251, 2261, 2271, 2281, 2291, 2301, 2311, 2321, 2331, 2341, 2351, 2361, 2371, 2381, 2391, 2401, 2411, 2421, 2431, 2441, 2451, 2461, 2471, 2481, 2491, 2501, 2511, 2521, 2531, 2541]","1260","1920","[960, 960, 960, 960, 960, 960, 960, 960, 960, 960, 960, 960, 960, 960, 960, 961, 961, 961, 964, 964, 964, 965, 969, 974, 979, 985, 998, 1004, 1014, 1023, 1047, 1060, 1073, 1083, 1102, 1111, 1118, 1131, 1152, 1160, 1168, 1173, 1188, 1197, 1208, 1219, 1239, 1247, 1258, 1267, 1282, 1287, 1295, 1302, 1313, 1318, 1324, 1330, 1343, 1349, 1357, 1363, 1375, 1381, 1385, 1391, 1402, 1407, 1411, 1415, 1422, 1426, 1429, 1432, 1437, 1441, 1442, 1446, 1454, 1457, 1461, 1465, 1472, 1476, 1478, 1482, 1492, 1495, 1500, 1506, 1517, 1522, 1529, 1536, 1548, 1556, 1563, 1570, 1580, 1586, 1589, 1594, 1603, 1609, 1616, 1621, 1633, 1641, 1647, 1653, 1660, 1660, 1660, 1660, 1660, 1660, 1660, 1654, 1627, 1603, 1571, 1522, 1403, 1327, 1254, 1156, 965, 864, 772, 694, 550, 497, 446, 406, 351, 338, 326, 318, 300, 293, 287, 283, 275, 272, 269, 265, 258, 257, 256, 256, 256, 255, 255, 253, 252, 250, 248, 247, 243, 240, 237, 235, 231, 228, 228, 225, 221, 219, 218, 217, 216, 216, 216, 216, 215, 214, 214, 214, 214, 214, 214, 214, 214, 214, 214, 214, 214, 214, 218, 233, 303, 358, 419, 499, 668, 754, 825, 889, 1014, 1072, 1130, 1177, 1250, 1272, 1287, 1299, 1317, 1319, 1323, 1326, 1335, 1341, 1349, 1357, 1383, 1398, 1411, 1428, 1456, 1475, 1488, 1505, 1535, 1552, 1573, 1594, 1640, 1660, 1674, 1686, 1703, 1707, 1710, 1710, 1710, 1710, 1710, 1710, 1710, 1710, 1711, 1711, 1711, 1711, 1711, 1711, 1711, 1711, 1711, 1711, 1711, 1711, 1711, 1711]","[1010, 1010, 1010, 1010, 1010, 1010, 1010, 1010, 1010, 1010, 1010, 1010, 1010, 1010, 1010, 1010, 1010, 1010, 1008, 1008, 1007, 1007, 1004, 1001, 996, 991, 981, 975, 966, 957, 931, 918, 900, 886, 856, 846, 833, 815, 786, 775, 766, 758, 737, 726, 714, 700, 673, 662, 648, 638, 621, 612, 602, 593, 576, 566, 557, 547, 525, 516, 507, 497, 481, 472, 463, 453, 436, 428, 421, 416, 406, 401, 396, 393, 385, 380, 378, 372, 361, 358, 353, 346, 337, 332, 327, 321, 310, 304, 297, 290, 278, 273, 268, 263, 252, 245, 239, 234, 225, 221, 218, 216, 208, 204, 200, 197, 187, 184, 181, 178, 175, 175, 175, 175, 174, 174, 172, 170, 165, 162, 157, 149, 135, 124, 113, 99, 72, 58, 47, 43, 26, 22, 16, 14, 14, 14, 13, 11, 11, 11, 11, 11, 11, 11, 11, 11, 11, 11, 11, 11, 12, 12, 12, 14, 16, 17, 20, 22, 26, 29, 35, 37, 43, 45, 49, 51, 56, 57, 59, 59, 61, 62, 62, 63, 64, 65, 65, 67, 67, 67, 67, 67, 67, 67, 67, 67, 67, 67, 68, 68, 68, 68, 68, 68, 68, 68, 68, 68, 68, 68, 68, 68, 68, 68, 68, 68, 68, 68, 67, 67, 66, 66, 66, 66, 66, 66, 66, 66, 66, 66, 66, 66, 66, 68, 70, 74, 81, 83, 85, 87, 89, 90, 90, 90, 90, 90, 90, 90, 90, 90, 90, 90, 90, 90, 90, 90, 90, 90, 90, 90, 90, 90, 90, 90]"
