Condition,PromiseStage,Stage,accuracy,avg_rt,count_decision_sequence,count_loop1,count_trial_sequence,font_size,height,init_time,payoff,response,rt,subject_nr,synth_backend,tTrajectory,time_experiment,width,xTrajectory,yTrajectory
"Promise","Wie oft werden Sie die Hälfte zurückgeben?","Promise","1","undefined","NA","0","0","60","1080","251","NA","1","2046","0","legacy","[11, 21, 31, 41, 51, 61, 71, 81, 91, 101, 111, 121, 131, 141, 151, 161, 171, 181, 191, 201, 211, 221, 231, 241, 251, 261, 271, 281, 291, 301, 311, 321, 331, 341, 351, 361, 371, 381, 391, 401, 411, 421, 431, 441, 451, 461, 471, 481, 491, 501, 511, 521, 531, 541, 551, 561, 571, 581, 591, 601, 611, 621, 631, 641, 651, 661, 671, 681, 691, 701, 711, 721, 731, 741, 751, 761, 771, 781, 791, 801, 811, 821, 831, 841, 851, 861, 871, 881, 891, 901, 911, 921, 931, 941, 951, 961, 971, 981, 991, 1001, 1011, 1021, 1031, 1041, 1051, 1061, 1071, 1081, 1091, 1101, 1111, 1121, 1131, 1141, 1151, 1161, 1171, 1181, 1191, 1201, 1211, 1221, 1231, 1241, 1251, 1261, 1271, 1281, 1291, 1301, 1311, 1321, 1331, 1341, 1351, 1361, 1371, 1381, 1391, 1401, 1411, 1421, 1431, 1441, 1451, 1461, 1471, 1481, 1491, 1501, 1511, 1521, 1531, 1541, 1551, 1561, 1571, 1581, 1591, 1601, 1611, 1621, 1631, 1641, 1651, 1661, 1671, 1681, 1691, 1701, 1711, 1721, 1731, 1741, 1751, 1761, 1771, 1781, 1791, 1801, 1811, 1821, 1831, 1841, 1851, 1861, 1871, 1881, 1891, 1901, 1911, 1921, 1931, 1941, 1951, 1961, 1971, 1981, 1991, 2001, 2011, 2021, 2031, 2041]","1337","1920","[960, 960, 960, 960, 960, 960, 960, 960, 960, 960, 960, 960, 960, 960, 960, 960, 961, 961, 954, 950, 947, 941, 927, 915, 899, 880, 826, 794, 758, 723, 654, 621, 588, 558, 496, 460, 430, 398, 335, 306, 281, 251, 209, 192, 184, 176, 165, 161, 160, 158, 157, 157, 156, 156, 156, 156, 156, 156, 157, 158, 159, 160, 160, 160, 160, 161, 164, 168, 169, 171, 171, 172, 172, 172, 172, 172, 172, 172, 172, 172, 172, 172, 169, 169, 168, 165, 161, 160, 156, 154, 149, 147, 147, 145, 144, 143, 142, 141, 140, 140, 140, 140, 139, 138, 138, 138, 136, 136, 136, 136, 136, 135, 135, 135, 134, 134, 134, 134, 134, 134, 134, 134, 134, 134, 134, 134, 134, 134, 134, 134, 134, 134, 134, 134, 134, 134, 134, 134, 134, 134, 134, 134, 134, 134, 134, 134, 134, 134, 134, 134, 134, 134, 134, 134, 134, 134, 134, 134, 134, 134, 134, 134, 134, 134, 134, 134, 134, 134, 134, 134, 134, 134, 134, 134, 134, 134, 134, 134, 134, 134, 134, 134, 134, 134, 134, 134, 134, 134, 134, 134, 134, 134, 134, 134, 134, 134, 134, 134, 134, 134, 134, 134, 134, 134]","[1010, 1010, 1010, 1010, 1010, 1010, 1010, 1010, 1010, 1010, 1010, 1010, 1010, 1010, 1010, 1010, 1009, 1007, 997, 990, 986, 977, 959, 945, 922, 901, 838, 799, 759, 714, 621, 577, 527, 482, 383, 331, 286, 234, 137, 93, 52, 13, 0, 0, 0, 0, 0, 0, 0, 0, 0, 0, 0, 0, 0, 0, 0, 0, 0, 3, 3, 3, 4, 4, 4, 7, 15, 22, 24, 27, 29, 30, 31, 33, 35, 38, 39, 40, 43, 44, 46, 47, 51, 53, 53, 57, 61, 63, 66, 67, 70, 71, 71, 71, 72, 72, 72, 72, 72, 72, 72, 72, 72, 72, 72, 72, 72, 72, 72, 72, 72, 70, 70, 70, 69, 69, 69, 69, 69, 69, 69, 69, 69, 69, 69, 69, 69, 69, 69, 69, 69, 69, 69, 69, 69, 69, 69, 69, 69, 69, 69, 69, 69, 69, 69, 69, 69, 69, 69, 69, 69, 69, 69, 69, 69, 69, 69, 69, 69, 69, 69, 69, 69, 69, 69, 69, 69, 69, 69, 69, 69, 69, 69, 69, 69, 69, 69, 69, 69, 69, 69, 69, 69, 69, 69, 69, 69, 69, 69, 69, 69, 69, 69, 69, 69, 69, 69, 69, 69, 69, 69, 69, 69, 69]"
Cond,DecisionB,Stage,accuracy,avg_rt,count_decision_sequence,count_loop1,count_trial_sequence,font_size,height,init_time,payoff,response,rt,subject_nr,synth_backend,tTrajectory,time_experiment,width,xTrajectory,yTrajectory
"Trust","Teilnehmer A hat Ihnen 2 Punkte übermittelt.","Payback","1","undefined","0","0","0","60","1080","421","5","1","2996","0","legacy","[11, 21, 31, 41, 51, 61, 71, 81, 91, 101, 111, 121, 131, 141, 151, 161, 171, 181, 191, 201, 211, 221, 231, 241, 251, 261, 271, 281, 291, 301, 311, 321, 331, 341, 351, 361, 371, 381, 391, 401, 411, 421, 431, 441, 451, 461, 471, 481, 491, 501, 511, 521, 531, 541, 551, 561, 571, 581, 591, 601, 611, 621, 631, 641, 651, 661, 671, 681, 691, 701, 711, 721, 731, 741, 751, 761, 771, 781, 791, 801, 811, 821, 831, 841, 851, 861, 871, 881, 891, 901, 911, 921, 931, 941, 951, 961, 971, 981, 991, 1001, 1011, 1021, 1031, 1041, 1051, 1061, 1071, 1081, 1091, 1101, 1111, 1121, 1131, 1141, 1151, 1161, 1171, 1181, 1191, 1201, 1211, 1221, 1231, 1241, 1251, 1261, 1271, 1281, 1291, 1301, 1311, 1321, 1331, 1341, 1351, 1361, 1371, 1381, 1391, 1401, 1411, 1421, 1431, 1441, 1451, 1461, 1471, 1481, 1491, 1501, 1511, 1521, 1531, 1541, 1551, 1561, 1571, 1581, 1591, 1601, 1611, 1621, 1631, 1641, 1651, 1661, 1671, 1681, 1691, 1701, 1711, 1721, 1731, 1741, 1751, 1761, 1771, 1781, 1791, 1801, 1811, 1821, 1831, 1841, 1851, 1861, 1871, 1881, 1891, 1901, 1911, 1921, 1931, 1941, 1951, 1961, 1971, 1981, 1991, 2001, 2011, 2021, 2031, 2041, 2051, 2061, 2071, 2081, 2091, 2101, 2111, 2121, 2131, 2141, 2151, 2161, 2171, 2181, 2191, 2201, 2211, 2221, 2231, 2241, 2251, 2261, 2271, 2281, 2291, 2301, 2311, 2321, 2331, 2341, 2351, 2361, 2371, 2381, 2391, 2401, 2411, 2421, 2431, 2441, 2451, 2461, 2471, 2481, 2491, 2501, 2511, 2521, 2531, 2541, 2551, 2561, 2571, 2581, 2591, 2601, 2611, 2621, 2631, 2641, 2651, 2661, 2671, 2681, 2691, 2701, 2711, 2721, 2731, 2741, 2751, 2761, 2771, 2781, 2791, 2801, 2811, 2821, 2831, 2841, 2851, 2861, 2871, 2881, 2891, 2901, 2911, 2921, 2931, 2941, 2951, 2961, 2971, 2981, 2991]","1337","1920","[960, 960, 960, 960, 960, 960, 960, 960, 960, 960, 960, 960, 960, 960, 960, 960, 960, 960, 960, 960, 960, 960, 960, 960, 960, 960, 960, 960, 960, 960, 960, 960, 960, 957, 956, 954, 953, 946, 942, 937, 935, 926, 924, 919, 915, 902, 894, 889, 882, 873, 866, 860, 855, 845, 839, 832, 824, 813, 805, 800, 793, 780, 775, 766, 759, 740, 729, 719, 710, 694, 687, 680, 673, 659, 650, 642, 633, 618, 611, 602, 596, 585, 578, 573, 567, 554, 549, 545, 541, 531, 527, 524, 521, 514, 512, 508, 505, 497, 495, 491, 487, 484, 481, 480, 477, 475, 473, 472, 471, 467, 465, 465, 463, 459, 457, 455, 453, 444, 441, 438, 433, 426, 421, 416, 414, 407, 405, 402, 400, 397, 396, 395, 395, 393, 393, 391, 390, 389, 387, 387, 387, 387, 387, 386, 386, 385, 385, 385, 385, 384, 384, 384, 384, 381, 381, 381, 380, 378, 376, 376, 376, 372, 372, 369, 368, 364, 361, 358, 355, 351, 347, 345, 343, 337, 336, 332, 331, 326, 324, 322, 321, 320, 317, 317, 316, 313, 312, 310, 308, 304, 302, 300, 298, 295, 294, 293, 293, 289, 286, 285, 282, 276, 271, 266, 263, 255, 251, 248, 243, 235, 227, 221, 216, 206, 201, 197, 193, 184, 181, 178, 175, 170, 168, 166, 164, 160, 158, 157, 155, 151, 150, 149, 147, 145, 144, 143, 143, 141, 141, 140, 140, 139, 139, 139, 137, 137, 136, 136, 136, 135, 134, 134, 134, 133, 133, 133, 133, 133, 133, 133, 133, 133, 133, 133, 133, 133, 133, 133, 133, 133, 133, 133, 133, 133, 133, 133, 133, 133, 133, 133, 133, 133, 133, 133, 133, 133, 133, 133, 133, 133, 133, 133, 133, 133, 133, 133, 133, 133, 133]","[1010, 1010, 1010, 1010, 1010, 1010, 1010, 1010, 1010, 1010, 1010, 1010, 1010, 1010, 1010, 1010, 1010, 1010, 1010, 1010, 1010, 1010, 1010, 1010, 1010, 1010, 1010, 1010, 1009, 1007, 1004, 1003, 1001, 995, 993, 990, 986, 974, 966, 956, 949, 931, 922, 913, 906, 887, 878, 868, 860, 845, 838, 830, 824, 810, 801, 794, 783, 768, 759, 753, 744, 730, 721, 711, 704, 684, 675, 666, 659, 644, 638, 631, 622, 605, 596, 587, 579, 563, 555, 546, 539, 526, 521, 516, 510, 499, 494, 486, 483, 471, 466, 463, 459, 451, 447, 445, 441, 433, 432, 428, 426, 423, 420, 419, 416, 414, 413, 412, 411, 407, 406, 405, 403, 399, 398, 396, 393, 386, 383, 381, 377, 371, 366, 363, 362, 356, 354, 354, 352, 349, 347, 347, 346, 344, 344, 343, 341, 340, 338, 338, 338, 337, 336, 335, 335, 334, 333, 333, 333, 332, 332, 332, 332, 328, 328, 326, 324, 321, 318, 317, 317, 312, 310, 309, 305, 301, 298, 295, 293, 289, 286, 284, 282, 278, 276, 274, 272, 267, 265, 264, 262, 259, 257, 256, 254, 250, 248, 246, 242, 238, 234, 232, 230, 226, 225, 224, 221, 217, 214, 213, 209, 202, 197, 193, 190, 184, 181, 179, 175, 168, 164, 160, 156, 148, 144, 140, 137, 129, 126, 125, 121, 117, 115, 113, 111, 106, 105, 103, 99, 95, 95, 94, 93, 91, 89, 89, 87, 87, 86, 85, 85, 84, 84, 84, 83, 82, 82, 82, 82, 81, 81, 80, 80, 80, 80, 80, 80, 80, 80, 80, 80, 80, 80, 80, 80, 80, 80, 80, 80, 80, 80, 80, 80, 80, 80, 80, 80, 80, 80, 80, 80, 80, 80, 80, 80, 80, 80, 80, 80, 80, 80, 80, 80, 80, 80, 80, 80, 80, 80]"
"NoTrust","Teilnehmer A hat Ihnen keine 2 Punkte übermittelt.","Payback","1","undefined","1","0","0","60","1080","421","0","1","2996","0","legacy","[11, 21, 31, 41, 51, 61, 71, 81, 91, 101, 111, 121, 131, 141, 151, 161, 171, 181, 191, 201, 211, 221, 231, 241, 251, 261, 271, 281, 291, 301, 311, 321, 331, 341, 351, 361, 371, 381, 391, 401, 411, 421, 431, 441, 451, 461, 471, 481, 491, 501, 511, 521, 531, 541, 551, 561, 571, 581, 591, 601, 611, 621, 631, 641, 651, 661, 671, 681, 691, 701, 711, 721, 731, 741, 751, 761, 771, 781, 791, 801, 811, 821, 831, 841, 851, 861, 871, 881, 891, 901, 911, 921, 931, 941, 951, 961, 971, 981, 991, 1001, 1011, 1021, 1031, 1041, 1051, 1061, 1071, 1081, 1091, 1101, 1111, 1121, 1131, 1141, 1151, 1161, 1171, 1181, 1191, 1201, 1211, 1221, 1231, 1241, 1251, 1261, 1271, 1281, 1291, 1301, 1311, 1321, 1331, 1341, 1351, 1361, 1371, 1381, 1391, 1401, 1411, 1421, 1431, 1441, 1451, 1461, 1471, 1481, 1491, 1501, 1511, 1521, 1531, 1541, 1551, 1561, 1571, 1581, 1591, 1601, 1611, 1621, 1631, 1641, 1651, 1661, 1671, 1681, 1691, 1701, 1711, 1721, 1731, 1741, 1751, 1761, 1771, 1781, 1791, 1801, 1811, 1821, 1831, 1841, 1851, 1861, 1871, 1881, 1891, 1901, 1911, 1921, 1931, 1941, 1951, 1961, 1971, 1981, 1991, 2001, 2011, 2021, 2031, 2041, 2051, 2061, 2071, 2081, 2091, 2101, 2111, 2121, 2131, 2141, 2151, 2161, 2171, 2181, 2191, 2201, 2211, 2221, 2231, 2241, 2251, 2261, 2271, 2281, 2291, 2301, 2311, 2321, 2331, 2341, 2351, 2361, 2371, 2381, 2391, 2401, 2411, 2421, 2431, 2441, 2451, 2461, 2471, 2481, 2491, 2501, 2511, 2521, 2531, 2541, 2551, 2561, 2571, 2581, 2591, 2601, 2611, 2621, 2631, 2641, 2651, 2661, 2671, 2681, 2691, 2701, 2711, 2721, 2731, 2741, 2751, 2761, 2771, 2781, 2791, 2801, 2811, 2821, 2831, 2841, 2851, 2861, 2871, 2881, 2891, 2901, 2911, 2921, 2931, 2941, 2951, 2961, 2971, 2981, 2991]","1337","1920","[960, 960, 960, 960, 960, 960, 960, 960, 960, 960, 960, 960, 960, 960, 960, 960, 960, 960, 960, 960, 960, 960, 960, 960, 960, 960, 960, 960, 960, 960, 960, 960, 960, 957, 956, 954, 953, 946, 942, 937, 935, 926, 924, 919, 915, 902, 894, 889, 882, 873, 866, 860, 855, 845, 839, 832, 824, 813, 805, 800, 793, 780, 775, 766, 759, 740, 729, 719, 710, 694, 687, 680, 673, 659, 650, 642, 633, 618, 611, 602, 596, 585, 578, 573, 567, 554, 549, 545, 541, 531, 527, 524, 521, 514, 512, 508, 505, 497, 495, 491, 487, 484, 481, 480, 477, 475, 473, 472, 471, 467, 465, 465, 463, 459, 457, 455, 453, 444, 441, 438, 433, 426, 421, 416, 414, 407, 405, 402, 400, 397, 396, 395, 395, 393, 393, 391, 390, 389, 387, 387, 387, 387, 387, 386, 386, 385, 385, 385, 385, 384, 384, 384, 384, 381, 381, 381, 380, 378, 376, 376, 376, 372, 372, 369, 368, 364, 361, 358, 355, 351, 347, 345, 343, 337, 336, 332, 331, 326, 324, 322, 321, 320, 317, 317, 316, 313, 312, 310, 308, 304, 302, 300, 298, 295, 294, 293, 293, 289, 286, 285, 282, 276, 271, 266, 263, 255, 251, 248, 243, 235, 227, 221, 216, 206, 201, 197, 193, 184, 181, 178, 175, 170, 168, 166, 164, 160, 158, 157, 155, 151, 150, 149, 147, 145, 144, 143, 143, 141, 141, 140, 140, 139, 139, 139, 137, 137, 136, 136, 136, 135, 134, 134, 134, 133, 133, 133, 133, 133, 133, 133, 133, 133, 133, 133, 133, 133, 133, 133, 133, 133, 133, 133, 133, 133, 133, 133, 133, 133, 133, 133, 133, 133, 133, 133, 133, 133, 133, 133, 133, 133, 133, 133, 133, 133, 133, 133, 133, 133, 133]","[1010, 1010, 1010, 1010, 1010, 1010, 1010, 1010, 1010, 1010, 1010, 1010, 1010, 1010, 1010, 1010, 1010, 1010, 1010, 1010, 1010, 1010, 1010, 1010, 1010, 1010, 1010, 1010, 1009, 1007, 1004, 1003, 1001, 995, 993, 990, 986, 974, 966, 956, 949, 931, 922, 913, 906, 887, 878, 868, 860, 845, 838, 830, 824, 810, 801, 794, 783, 768, 759, 753, 744, 730, 721, 711, 704, 684, 675, 666, 659, 644, 638, 631, 622, 605, 596, 587, 579, 563, 555, 546, 539, 526, 521, 516, 510, 499, 494, 486, 483, 471, 466, 463, 459, 451, 447, 445, 441, 433, 432, 428, 426, 423, 420, 419, 416, 414, 413, 412, 411, 407, 406, 405, 403, 399, 398, 396, 393, 386, 383, 381, 377, 371, 366, 363, 362, 356, 354, 354, 352, 349, 347, 347, 346, 344, 344, 343, 341, 340, 338, 338, 338, 337, 336, 335, 335, 334, 333, 333, 333, 332, 332, 332, 332, 328, 328, 326, 324, 321, 318, 317, 317, 312, 310, 309, 305, 301, 298, 295, 293, 289, 286, 284, 282, 278, 276, 274, 272, 267, 265, 264, 262, 259, 257, 256, 254, 250, 248, 246, 242, 238, 234, 232, 230, 226, 225, 224, 221, 217, 214, 213, 209, 202, 197, 193, 190, 184, 181, 179, 175, 168, 164, 160, 156, 148, 144, 140, 137, 129, 126, 125, 121, 117, 115, 113, 111, 106, 105, 103, 99, 95, 95, 94, 93, 91, 89, 89, 87, 87, 86, 85, 85, 84, 84, 84, 83, 82, 82, 82, 82, 81, 81, 80, 80, 80, 80, 80, 80, 80, 80, 80, 80, 80, 80, 80, 80, 80, 80, 80, 80, 80, 80, 80, 80, 80, 80, 80, 80, 80, 80, 80, 80, 80, 80, 80, 80, 80, 80, 80, 80, 80, 80, 80, 80, 80, 80, 80, 80, 80, 80]"
"Trust","Teilnehmer A hat Ihnen 2 Punkte übermittelt.","Payback","0","undefined","2","0","0","60","1080","271","10","2","1142","0","legacy","[11, 21, 31, 41, 51, 61, 71, 81, 91, 101, 111, 121, 131, 141, 151, 161, 171, 181, 191, 201, 211, 221, 231, 241, 251, 261, 271, 281, 291, 301, 311, 321, 331, 341, 351, 361, 371, 381, 391, 401, 411, 421, 431, 441, 451, 461, 471, 481, 491, 501, 511, 521, 531, 541, 551, 561, 571, 581, 591, 601, 611, 621, 631, 641, 651, 661, 671, 681, 691, 701, 711, 721, 731, 741, 751, 761, 771, 781, 791, 801, 811, 821, 831, 841, 851, 861, 871, 881, 891, 901, 911, 921, 931, 941, 951, 961, 971, 981, 991, 1001, 1011, 1021, 1031, 1041, 1051, 1061, 1071, 1081, 1091, 1101, 1111, 1121, 1131, 1141]","1337","1920","[960, 960, 960, 960, 960, 960, 960, 960, 960, 960, 960, 960, 960, 960, 960, 960, 960, 960, 960, 961, 963, 966, 972, 976, 982, 988, 1018, 1035, 1053, 1078, 1136, 1167, 1198, 1227, 1288, 1317, 1351, 1387, 1463, 1495, 1526, 1561, 1619, 1648, 1671, 1692, 1728, 1739, 1747, 1752, 1757, 1760, 1761, 1762, 1763, 1763, 1763, 1763, 1763, 1763, 1763, 1763, 1763, 1764, 1764, 1764, 1765, 1765, 1766, 1766, 1766, 1766, 1766, 1766, 1766, 1766, 1766, 1766, 1766, 1766, 1766, 1766, 1767, 1768, 1768, 1770, 1771, 1772, 1772, 1774, 1774, 1774, 1774, 1774, 1774, 1774, 1774, 1774, 1774, 1774, 1774, 1774, 1774, 1774, 1774, 1774, 1774, 1774, 1774, 1774, 1774, 1774, 1774, 1774]","[1010, 1010, 1010, 1010, 1010, 1010, 1010, 1010, 1010, 1010, 1009, 1007, 1006, 1005, 1003, 1003, 1003, 1003, 999, 997, 993, 989, 977, 968, 957, 943, 891, 866, 843, 814, 763, 741, 715, 694, 641, 613, 585, 545, 469, 437, 402, 367, 305, 276, 250, 224, 182, 172, 162, 157, 148, 146, 144, 142, 140, 140, 140, 140, 139, 138, 137, 137, 135, 133, 133, 132, 131, 129, 127, 127, 125, 125, 123, 123, 123, 123, 122, 122, 121, 119, 118, 115, 111, 109, 106, 104, 100, 98, 97, 95, 93, 93, 93, 93, 93, 93, 93, 93, 93, 93, 93, 93, 93, 93, 93, 93, 93, 93, 93, 93, 93, 93, 93, 93]"
"Promise","Wie oft werden Sie die Hälfte zurückgeben?","Promise","1","undefined","2","0","1","60","1080","371","10","1","1583","0","legacy","[11, 21, 31, 41, 51, 61, 71, 81, 91, 101, 111, 121, 131, 141, 151, 161, 171, 181, 191, 201, 211, 221, 231, 241, 251, 261, 271, 281, 291, 301, 311, 321, 331, 341, 351, 361, 371, 381, 391, 401, 411, 421, 431, 441, 451, 461, 471, 481, 491, 501, 511, 521, 531, 541, 551, 561, 571, 581, 591, 601, 611, 621, 631, 641, 651, 661, 671, 681, 691, 701, 711, 721, 731, 741, 751, 761, 771, 781, 791, 801, 811, 821, 831, 841, 851, 861, 871, 881, 891, 901, 911, 921, 931, 941, 951, 961, 971, 981, 991, 1001, 1011, 1021, 1031, 1041, 1051, 1061, 1071, 1081, 1091, 1101, 1111, 1121, 1131, 1141, 1151, 1161, 1171, 1181, 1191, 1201, 1211, 1221, 1231, 1241, 1251, 1261, 1271, 1281, 1291, 1301, 1311, 1321, 1331, 1341, 1351, 1361, 1371, 1381, 1391, 1401, 1411, 1421, 1431, 1441, 1451, 1461, 1471, 1481, 1491, 1501, 1511, 1521, 1531, 1541, 1551, 1561, 1571, 1581]","1337","1920","[960, 960, 960, 960, 960, 960, 960, 960, 960, 960, 960, 960, 960, 960, 960, 960, 960, 960, 960, 960, 960, 960, 960, 960, 960, 960, 960, 960, 960, 960, 960, 952, 946, 943, 936, 920, 914, 906, 898, 884, 873, 860, 842, 800, 782, 758, 734, 691, 671, 652, 635, 607, 593, 575, 561, 522, 496, 476, 455, 436, 427, 421, 416, 411, 409, 406, 404, 398, 394, 389, 386, 382, 380, 380, 379, 377, 376, 373, 372, 368, 364, 361, 358, 350, 346, 343, 339, 335, 333, 330, 327, 324, 322, 321, 320, 317, 315, 313, 312, 307, 305, 300, 295, 283, 274, 265, 255, 237, 227, 218, 209, 193, 184, 180, 175, 166, 161, 153, 147, 131, 127, 125, 124, 124, 124, 124, 124, 124, 124, 124, 124, 124, 124, 124, 124, 124, 124, 124, 124, 124, 124, 124, 124, 124, 124, 124, 124, 124, 124, 124, 124, 124, 124, 124, 124, 124, 124, 124]","[1010, 1010, 1010, 1010, 1010, 1010, 1010, 1010, 1010, 1010, 1010, 1010, 1010, 1010, 1010, 1010, 1010, 1010, 1010, 1010, 1010, 1010, 1010, 1010, 1010, 1010, 1010, 1010, 1010, 1010, 1010, 1000, 992, 985, 973, 947, 935, 920, 907, 880, 859, 839, 816, 755, 732, 699, 674, 625, 602, 583, 565, 532, 516, 496, 480, 444, 423, 406, 389, 372, 365, 360, 357, 352, 349, 346, 342, 328, 322, 313, 308, 300, 298, 296, 294, 291, 289, 286, 283, 278, 273, 267, 261, 249, 243, 239, 234, 227, 225, 223, 221, 218, 216, 215, 214, 211, 209, 207, 206, 203, 199, 195, 190, 179, 172, 163, 155, 141, 134, 127, 121, 110, 104, 100, 97, 90, 86, 79, 74, 63, 61, 60, 59, 59, 59, 59, 59, 59, 59, 59, 59, 59, 59, 59, 59, 59, 59, 59, 59, 59, 59, 59, 59, 59, 59, 59, 59, 59, 59, 59, 59, 59, 59, 59, 59, 59, 59, 59]"
"Trust","Teilnehmer A hat Ihnen 2 Punkte übermittelt.","Payback","1","undefined","3","0","1","60","1080","351","5","1","1510","0","legacy","[11, 21, 31, 41, 51, 61, 71, 81, 91, 101, 111, 121, 131, 141, 151, 161, 171, 181, 191, 201, 211, 221, 231, 241, 251, 261, 271, 281, 291, 301, 311, 321, 331, 341, 351, 361, 371, 381, 391, 402, 411, 421, 431, 441, 451, 461, 471, 481, 491, 501, 511, 521, 531, 541, 551, 561, 571, 581, 591, 601, 611, 621, 631, 641, 651, 661, 671, 681, 691, 701, 711, 721, 731, 741, 751, 761, 771, 781, 791, 801, 811, 821, 831, 841, 851, 861, 871, 881, 891, 901, 911, 921, 931, 941, 951, 961, 971, 981, 991, 1001, 1011, 1021, 1031, 1041, 1051, 1061, 1071, 1081, 1091, 1101, 1111, 1121, 1131, 1141, 1151, 1161, 1171, 1181, 1191, 1201, 1211, 1221, 1231, 1241, 1251, 1261, 1271, 1281, 1291, 1301, 1311, 1321, 1331, 1341, 1351, 1361, 1371, 1381, 1391, 1401, 1411, 1421, 1431, 1441, 1451, 1461, 1471, 1481, 1491, 1501]","1337","1920","[960, 960, 960, 960, 960, 960, 960, 960, 960, 960, 960, 960, 960, 960, 960, 960, 960, 960, 960, 960, 960, 960, 958, 958, 954, 952, 948, 947, 946, 943, 934, 929, 923, 913, 890, 869, 843, 818, 775, 757, 742, 726, 699, 688, 680, 668, 649, 640, 625, 611, 594, 587, 581, 577, 566, 562, 556, 551, 542, 536, 529, 526, 515, 509, 502, 497, 485, 480, 473, 468, 457, 449, 445, 441, 428, 420, 412, 403, 384, 370, 358, 347, 322, 306, 293, 281, 258, 252, 244, 235, 224, 218, 213, 206, 201, 200, 200, 200, 199, 199, 199, 198, 198, 198, 196, 195, 191, 188, 185, 183, 176, 173, 168, 163, 153, 147, 144, 141, 132, 129, 125, 124, 123, 123, 123, 123, 123, 123, 123, 123, 123, 123, 123, 123, 123, 123, 123, 123, 123, 123, 123, 123, 123, 123, 123, 123, 123, 123, 123, 123]","[1010, 1010, 1010, 1010, 1010, 1010, 1010, 1010, 1010, 1010, 1010, 1009, 1009, 1008, 1005, 1005, 1004, 1002, 1001, 1000, 999, 996, 993, 991, 988, 986, 983, 982, 980, 976, 965, 960, 952, 942, 919, 899, 877, 860, 826, 811, 797, 782, 755, 742, 732, 718, 696, 683, 671, 656, 634, 623, 613, 603, 580, 569, 559, 550, 535, 527, 520, 512, 497, 488, 480, 472, 459, 452, 445, 440, 430, 424, 417, 413, 396, 387, 377, 368, 350, 340, 328, 319, 300, 286, 275, 265, 246, 240, 232, 224, 212, 205, 200, 195, 189, 189, 188, 187, 186, 186, 186, 186, 186, 185, 182, 181, 174, 169, 163, 159, 145, 139, 133, 127, 113, 105, 100, 96, 86, 82, 78, 77, 76, 76, 76, 76, 76, 76, 76, 76, 76, 76, 76, 76, 76, 76, 76, 76, 76, 76, 76, 76, 76, 76, 76, 76, 76, 76, 76, 76]"
"Trust","Teilnehmer A hat Ihnen 2 Punkte übermittelt.","Payback","0","undefined","4","0","1","60","1080","321","10","2","1462","0","legacy","[11, 21, 31, 41, 51, 61, 71, 81, 91, 101, 111, 121, 131, 141, 151, 161, 171, 181, 191, 201, 211, 221, 231, 241, 251, 261, 271, 281, 291, 301, 311, 321, 331, 341, 351, 361, 371, 381, 391, 401, 411, 421, 431, 441, 451, 461, 471, 481, 491, 501, 511, 521, 531, 541, 551, 561, 571, 581, 591, 601, 611, 621, 631, 641, 651, 661, 671, 681, 691, 701, 711, 721, 731, 741, 751, 761, 771, 781, 791, 801, 811, 821, 831, 841, 851, 861, 871, 881, 891, 901, 911, 921, 931, 941, 951, 961, 971, 981, 991, 1001, 1011, 1021, 1031, 1041, 1051, 1061, 1071, 1081, 1091, 1101, 1111, 1121, 1131, 1141, 1151, 1161, 1171, 1181, 1191, 1201, 1211, 1221, 1231, 1241, 1251, 1261, 1271, 1281, 1291, 1301, 1311, 1321, 1331, 1341, 1351, 1361, 1371, 1381, 1391, 1401, 1411, 1421, 1431, 1441, 1451, 1461]","1337","1920","[960, 960, 960, 960, 960, 960, 960, 960, 960, 960, 960, 960, 960, 960, 960, 960, 960, 959, 959, 959, 959, 959, 959, 959, 959, 959, 959, 960, 962, 966, 973, 979, 984, 991, 1007, 1015, 1029, 1042, 1073, 1089, 1109, 1125, 1155, 1168, 1181, 1196, 1225, 1240, 1249, 1261, 1279, 1285, 1291, 1299, 1311, 1317, 1322, 1325, 1335, 1339, 1344, 1348, 1359, 1366, 1373, 1381, 1395, 1406, 1415, 1423, 1440, 1447, 1455, 1463, 1475, 1483, 1490, 1500, 1518, 1527, 1537, 1548, 1570, 1579, 1590, 1597, 1615, 1621, 1628, 1633, 1641, 1645, 1653, 1657, 1664, 1667, 1669, 1672, 1677, 1679, 1680, 1683, 1687, 1691, 1695, 1697, 1704, 1707, 1711, 1713, 1716, 1717, 1718, 1718, 1719, 1719, 1719, 1719, 1721, 1721, 1721, 1721, 1722, 1722, 1722, 1722, 1722, 1722, 1722, 1722, 1722, 1722, 1722, 1722, 1722, 1722, 1722, 1722, 1722, 1722, 1722, 1722, 1722, 1722, 1722, 1722]","[1010, 1010, 1010, 1010, 1010, 1010, 1010, 1010, 1010, 1010, 1010, 1010, 1010, 1009, 1005, 1005, 1003, 1001, 998, 997, 997, 997, 995, 994, 993, 991, 986, 982, 977, 969, 951, 939, 928, 916, 888, 876, 857, 839, 795, 770, 742, 717, 665, 643, 623, 601, 561, 544, 532, 512, 491, 482, 472, 463, 448, 438, 432, 427, 413, 408, 401, 394, 378, 369, 358, 349, 326, 314, 305, 293, 274, 266, 256, 247, 232, 222, 213, 203, 182, 174, 164, 153, 131, 122, 112, 106, 91, 85, 80, 76, 68, 64, 59, 55, 50, 48, 45, 44, 41, 39, 38, 36, 34, 32, 30, 30, 27, 27, 26, 26, 24, 24, 23, 23, 23, 23, 23, 23, 23, 23, 23, 23, 23, 23, 23, 23, 23, 23, 23, 23, 23, 23, 23, 23, 23, 23, 23, 23, 23, 23, 23, 23, 23, 23, 23, 23]"
"Trust","Teilnehmer A hat Ihnen 2 Punkte übermittelt.","Payback","0","undefined","5","0","1","60","1080","271","10","2","1412","0","legacy","[11, 21, 31, 41, 51, 61, 71, 81, 91, 101, 111, 121, 131, 141, 151, 161, 171, 181, 191, 201, 211, 221, 231, 241, 251, 261, 271, 281, 291, 301, 311, 321, 331, 341, 351, 361, 371, 381, 391, 401, 411, 421, 431, 441, 451, 461, 471, 481, 491, 501, 511, 521, 531, 541, 551, 561, 571, 581, 591, 601, 611, 621, 631, 641, 651, 661, 671, 681, 691, 701, 711, 721, 731, 741, 751, 761, 771, 781, 791, 801, 811, 821, 831, 841, 851, 861, 871, 881, 891, 901, 911, 921, 931, 941, 951, 961, 971, 981, 991, 1001, 1011, 1021, 1031, 1041, 1051, 1061, 1071, 1081, 1091, 1101, 1111, 1121, 1131, 1141, 1151, 1161, 1171, 1181, 1191, 1201, 1211, 1221, 1231, 1241, 1251, 1261, 1271, 1281, 1291, 1301, 1311, 1321, 1331, 1341, 1351, 1361, 1371, 1381, 1391, 1401, 1411]","1337","1920","[960, 960, 960, 960, 960, 960, 960, 960, 960, 960, 960, 960, 960, 960, 960, 960, 960, 960, 960, 960, 960, 963, 964, 967, 970, 977, 983, 990, 996, 1009, 1018, 1026, 1031, 1052, 1057, 1069, 1081, 1110, 1127, 1144, 1163, 1197, 1213, 1228, 1245, 1267, 1276, 1288, 1297, 1315, 1325, 1331, 1339, 1352, 1358, 1363, 1369, 1380, 1386, 1394, 1401, 1418, 1424, 1430, 1438, 1453, 1462, 1471, 1483, 1513, 1525, 1541, 1553, 1573, 1585, 1594, 1604, 1618, 1626, 1633, 1639, 1651, 1656, 1662, 1668, 1681, 1686, 1692, 1697, 1710, 1715, 1719, 1722, 1729, 1732, 1734, 1736, 1741, 1742, 1744, 1745, 1747, 1748, 1750, 1750, 1753, 1754, 1754, 1754, 1757, 1757, 1757, 1757, 1760, 1760, 1761, 1761, 1761, 1761, 1761, 1761, 1761, 1761, 1761, 1761, 1761, 1761, 1761, 1761, 1761, 1761, 1761, 1761, 1761, 1761, 1761, 1761, 1761, 1761, 1761, 1761]","[1010, 1010, 1010, 1010, 1010, 1010, 1010, 1010, 1010, 1010, 1010, 1010, 1010, 1010, 1010, 1010, 1008, 1004, 1001, 999, 996, 987, 981, 974, 967, 952, 939, 928, 916, 893, 876, 863, 850, 814, 794, 775, 755, 716, 695, 677, 658, 625, 611, 597, 584, 567, 559, 551, 544, 532, 525, 520, 513, 503, 497, 489, 483, 471, 465, 457, 451, 438, 432, 426, 419, 408, 400, 392, 382, 356, 347, 333, 321, 303, 291, 284, 275, 260, 253, 245, 236, 224, 216, 209, 202, 188, 182, 176, 171, 163, 157, 154, 151, 145, 140, 138, 134, 126, 123, 117, 115, 109, 105, 102, 101, 97, 94, 91, 88, 83, 82, 79, 76, 74, 74, 74, 74, 72, 72, 72, 72, 72, 72, 72, 72, 72, 72, 72, 72, 72, 72, 72, 72, 72, 72, 72, 72, 72, 72, 72, 72]"
"Promise","Wie oft werden Sie die Hälfte zurückgeben?","Promise","0","undefined","5","0","2","60","1080","281","10","2","1424","0","legacy","[11, 21, 31, 41, 51, 61, 71, 81, 91, 101, 111, 121, 131, 141, 151, 161, 171, 181, 191, 201, 211, 221, 231, 241, 251, 261, 271, 281, 291, 301, 311, 321, 331, 341, 351, 361, 371, 381, 391, 401, 411, 421, 431, 441, 451, 461, 471, 481, 491, 501, 511, 521, 531, 541, 551, 561, 571, 581, 591, 601, 611, 621, 631, 641, 651, 661, 671, 681, 691, 701, 711, 721, 731, 741, 751, 761, 771, 781, 791, 801, 811, 821, 831, 841, 851, 861, 871, 881, 891, 901, 911, 921, 931, 941, 951, 961, 971, 981, 991, 1001, 1011, 1021, 1031, 1041, 1051, 1061, 1071, 1081, 1091, 1101, 1111, 1121, 1131, 1141, 1151, 1161, 1171, 1181, 1191, 1201, 1211, 1221, 1231, 1241, 1251, 1261, 1271, 1281, 1291, 1301, 1311, 1321, 1331, 1341, 1351, 1361, 1371, 1381, 1391, 1401, 1411, 1421]","1337","1920","[960, 960, 960, 960, 960, 960, 960, 960, 960, 960, 960, 960, 960, 960, 960, 960, 959, 959, 960, 964, 966, 968, 972, 980, 985, 991, 997, 1009, 1019, 1027, 1036, 1064, 1087, 1110, 1131, 1177, 1198, 1224, 1244, 1295, 1320, 1348, 1374, 1433, 1459, 1484, 1510, 1541, 1552, 1561, 1568, 1578, 1580, 1583, 1585, 1592, 1593, 1594, 1596, 1600, 1600, 1601, 1602, 1603, 1605, 1605, 1607, 1610, 1612, 1615, 1617, 1621, 1626, 1629, 1633, 1645, 1648, 1652, 1656, 1664, 1670, 1676, 1679, 1689, 1692, 1695, 1697, 1699, 1700, 1700, 1702, 1707, 1711, 1718, 1724, 1731, 1733, 1736, 1737, 1740, 1742, 1743, 1746, 1748, 1748, 1748, 1748, 1748, 1748, 1748, 1748, 1748, 1748, 1748, 1748, 1748, 1748, 1748, 1748, 1748, 1748, 1748, 1748, 1748, 1748, 1748, 1748, 1748, 1748, 1748, 1748, 1748, 1748, 1748, 1748, 1748, 1748, 1748, 1748, 1748, 1748, 1748]","[1010, 1010, 1010, 1010, 1010, 1010, 1010, 1010, 1010, 1010, 1010, 1010, 1010, 1010, 1010, 1010, 1010, 1008, 1007, 1002, 999, 995, 989, 973, 963, 954, 942, 912, 893, 878, 857, 793, 752, 714, 676, 602, 566, 535, 499, 431, 395, 361, 327, 261, 232, 203, 171, 131, 114, 104, 96, 86, 85, 82, 81, 75, 74, 73, 73, 72, 71, 71, 70, 70, 70, 70, 70, 68, 67, 67, 67, 66, 64, 64, 63, 61, 61, 59, 58, 55, 53, 52, 51, 47, 45, 44, 43, 42, 42, 41, 41, 39, 37, 36, 33, 30, 30, 29, 28, 28, 28, 28, 28, 26, 26, 26, 26, 26, 26, 26, 26, 26, 26, 26, 26, 26, 26, 26, 27, 28, 30, 31, 32, 34, 35, 35, 35, 35, 35, 36, 36, 36, 36, 36, 36, 36, 36, 36, 36, 36, 36, 36]"
"Trust","Teilnehmer A hat Ihnen 2 Punkte übermittelt.","Payback","1","undefined","6","0","2","60","1080","341","5","1","1780","0","legacy","[11, 21, 31, 41, 51, 61, 71, 81, 91, 101, 111, 121, 131, 141, 151, 161, 171, 181, 191, 201, 211, 221, 231, 241, 251, 261, 271, 281, 291, 301, 311, 321, 331, 341, 351, 361, 371, 381, 391, 401, 411, 421, 431, 441, 451, 461, 471, 481, 491, 501, 511, 521, 531, 541, 551, 561, 571, 581, 591, 601, 611, 621, 631, 641, 651, 661, 671, 681, 691, 701, 711, 721, 731, 741, 751, 761, 771, 781, 791, 801, 811, 821, 831, 841, 851, 861, 871, 881, 891, 901, 911, 921, 931, 941, 951, 961, 971, 981, 991, 1001, 1011, 1021, 1031, 1041, 1051, 1061, 1071, 1081, 1091, 1101, 1111, 1121, 1131, 1141, 1151, 1161, 1171, 1181, 1191, 1201, 1211, 1221, 1231, 1241, 1251, 1261, 1271, 1281, 1291, 1301, 1311, 1321, 1331, 1341, 1351, 1361, 1371, 1381, 1391, 1401, 1411, 1421, 1431, 1441, 1451, 1461, 1471, 1481, 1491, 1501, 1511, 1521, 1531, 1541, 1551, 1561, 1571, 1581, 1591, 1601, 1611, 1621, 1631, 1641, 1651, 1661, 1671, 1681, 1691, 1701, 1711, 1721, 1731, 1741, 1751, 1761, 1771]","1337","1920","[960, 960, 960, 960, 960, 960, 960, 960, 960, 960, 960, 960, 960, 960, 960, 960, 960, 960, 960, 960, 960, 959, 958, 956, 956, 950, 948, 947, 944, 935, 930, 923, 915, 892, 874, 856, 839, 812, 801, 789, 781, 755, 745, 735, 723, 712, 706, 701, 697, 684, 678, 669, 661, 648, 641, 638, 631, 620, 613, 602, 592, 563, 546, 537, 523, 508, 502, 494, 487, 469, 460, 454, 446, 436, 430, 425, 421, 410, 404, 395, 387, 371, 363, 355, 348, 339, 334, 330, 325, 314, 309, 304, 298, 289, 286, 280, 278, 270, 264, 260, 255, 247, 244, 240, 236, 230, 227, 223, 220, 210, 206, 204, 200, 196, 194, 191, 190, 185, 183, 180, 178, 170, 168, 168, 165, 164, 163, 161, 159, 155, 154, 152, 151, 147, 146, 144, 143, 142, 141, 141, 140, 140, 139, 139, 139, 139, 139, 139, 138, 138, 138, 138, 138, 138, 138, 138, 138, 138, 138, 138, 138, 138, 138, 138, 138, 138, 138, 138, 138, 138, 138, 138, 138, 138, 138, 138, 138]","[1010, 1010, 1010, 1010, 1010, 1010, 1010, 1010, 1010, 1010, 1010, 1010, 1010, 1010, 1010, 1010, 1010, 1010, 1010, 1010, 1010, 1007, 1007, 1005, 1003, 998, 996, 993, 991, 979, 972, 965, 956, 934, 917, 902, 882, 861, 855, 848, 842, 826, 821, 815, 807, 792, 787, 781, 774, 760, 755, 748, 741, 730, 725, 721, 717, 708, 701, 692, 684, 659, 646, 638, 630, 619, 614, 607, 601, 586, 579, 573, 567, 554, 547, 538, 530, 512, 503, 491, 481, 460, 451, 440, 432, 417, 410, 404, 395, 381, 375, 367, 361, 351, 347, 340, 335, 325, 319, 314, 309, 300, 297, 293, 288, 280, 275, 269, 264, 249, 243, 236, 226, 212, 204, 197, 190, 175, 165, 157, 148, 132, 126, 122, 116, 107, 103, 99, 94, 86, 82, 78, 75, 69, 68, 65, 65, 62, 60, 60, 59, 58, 57, 57, 57, 56, 56, 56, 55, 55, 55, 55, 55, 55, 55, 55, 55, 55, 55, 55, 55, 55, 55, 55, 55, 55, 55, 55, 55, 55, 55, 55, 55, 55, 55, 55, 55]"
"NoTrust","Teilnehmer A hat Ihnen keine 2 Punkte übermittelt.","Payback","1","undefined","7","0","2","60","1080","341","0","1","1780","0","legacy","[11, 21, 31, 41, 51, 61, 71, 81, 91, 101, 111, 121, 131, 141, 151, 161, 171, 181, 191, 201, 211, 221, 231, 241, 251, 261, 271, 281, 291, 301, 311, 321, 331, 341, 351, 361, 371, 381, 391, 401, 411, 421, 431, 441, 451, 461, 471, 481, 491, 501, 511, 521, 531, 541, 551, 561, 571, 581, 591, 601, 611, 621, 631, 641, 651, 661, 671, 681, 691, 701, 711, 721, 731, 741, 751, 761, 771, 781, 791, 801, 811, 821, 831, 841, 851, 861, 871, 881, 891, 901, 911, 921, 931, 941, 951, 961, 971, 981, 991, 1001, 1011, 1021, 1031, 1041, 1051, 1061, 1071, 1081, 1091, 1101, 1111, 1121, 1131, 1141, 1151, 1161, 1171, 1181, 1191, 1201, 1211, 1221, 1231, 1241, 1251, 1261, 1271, 1281, 1291, 1301, 1311, 1321, 1331, 1341, 1351, 1361, 1371, 1381, 1391, 1401, 1411, 1421, 1431, 1441, 1451, 1461, 1471, 1481, 1491, 1501, 1511, 1521, 1531, 1541, 1551, 1561, 1571, 1581, 1591, 1601, 1611, 1621, 1631, 1641, 1651, 1661, 1671, 1681, 1691, 1701, 1711, 1721, 1731, 1741, 1751, 1761, 1771]","1337","1920","[960, 960, 960, 960, 960, 960, 960, 960, 960, 960, 960, 960, 960, 960, 960, 960, 960, 960, 960, 960, 960, 959, 958, 956, 956, 950, 948, 947, 944, 935, 930, 923, 915, 892, 874, 856, 839, 812, 801, 789, 781, 755, 745, 735, 723, 712, 706, 701, 697, 684, 678, 669, 661, 648, 641, 638, 631, 620, 613, 602, 592, 563, 546, 537, 523, 508, 502, 494, 487, 469, 460, 454, 446, 436, 430, 425, 421, 410, 404, 395, 387, 371, 363, 355, 348, 339, 334, 330, 325, 314, 309, 304, 298, 289, 286, 280, 278, 270, 264, 260, 255, 247, 244, 240, 236, 230, 227, 223, 220, 210, 206, 204, 200, 196, 194, 191, 190, 185, 183, 180, 178, 170, 168, 168, 165, 164, 163, 161, 159, 155, 154, 152, 151, 147, 146, 144, 143, 142, 141, 141, 140, 140, 139, 139, 139, 139, 139, 139, 138, 138, 138, 138, 138, 138, 138, 138, 138, 138, 138, 138, 138, 138, 138, 138, 138, 138, 138, 138, 138, 138, 138, 138, 138, 138, 138, 138, 138]","[1010, 1010, 1010, 1010, 1010, 1010, 1010, 1010, 1010, 1010, 1010, 1010, 1010, 1010, 1010, 1010, 1010, 1010, 1010, 1010, 1010, 1007, 1007, 1005, 1003, 998, 996, 993, 991, 979, 972, 965, 956, 934, 917, 902, 882, 861, 855, 848, 842, 826, 821, 815, 807, 792, 787, 781, 774, 760, 755, 748, 741, 730, 725, 721, 717, 708, 701, 692, 684, 659, 646, 638, 630, 619, 614, 607, 601, 586, 579, 573, 567, 554, 547, 538, 530, 512, 503, 491, 481, 460, 451, 440, 432, 417, 410, 404, 395, 381, 375, 367, 361, 351, 347, 340, 335, 325, 319, 314, 309, 300, 297, 293, 288, 280, 275, 269, 264, 249, 243, 236, 226, 212, 204, 197, 190, 175, 165, 157, 148, 132, 126, 122, 116, 107, 103, 99, 94, 86, 82, 78, 75, 69, 68, 65, 65, 62, 60, 60, 59, 58, 57, 57, 57, 56, 56, 56, 55, 55, 55, 55, 55, 55, 55, 55, 55, 55, 55, 55, 55, 55, 55, 55, 55, 55, 55, 55, 55, 55, 55, 55, 55, 55, 55, 55, 55]"
"Trust","Teilnehmer A hat Ihnen 2 Punkte übermittelt.","Payback","0","undefined","8","0","2","60","1080","231","10","2","1837","0","legacy","[11, 21, 31, 41, 51, 61, 71, 81, 91, 101, 111, 121, 131, 141, 151, 161, 171, 181, 191, 201, 211, 221, 231, 241, 251, 261, 271, 281, 291, 301, 311, 321, 331, 341, 351, 361, 371, 381, 391, 401, 411, 421, 431, 441, 451, 461, 471, 481, 491, 501, 511, 521, 531, 541, 551, 561, 571, 581, 591, 601, 611, 621, 631, 641, 651, 661, 671, 681, 691, 701, 711, 721, 731, 741, 751, 761, 771, 781, 791, 801, 811, 821, 831, 841, 851, 861, 871, 881, 891, 901, 911, 921, 931, 941, 951, 961, 971, 981, 991, 1001, 1011, 1021, 1031, 1041, 1051, 1061, 1071, 1081, 1091, 1101, 1111, 1121, 1131, 1141, 1151, 1161, 1171, 1181, 1191, 1201, 1211, 1221, 1231, 1241, 1251, 1261, 1271, 1281, 1291, 1301, 1311, 1321, 1331, 1341, 1351, 1361, 1371, 1381, 1391, 1401, 1411, 1421, 1431, 1441, 1451, 1461, 1471, 1481, 1491, 1501, 1511, 1521, 1531, 1541, 1551, 1561, 1571, 1581, 1591, 1601, 1611, 1621, 1631, 1641, 1651, 1661, 1671, 1681, 1691, 1701, 1711, 1721, 1731, 1741, 1751, 1761, 1771, 1781, 1791, 1801, 1811, 1821, 1831]","1337","1920","[960, 960, 960, 960, 960, 960, 960, 960, 960, 960, 960, 960, 960, 960, 963, 964, 965, 967, 973, 975, 977, 979, 989, 994, 1000, 1006, 1025, 1040, 1055, 1064, 1085, 1092, 1101, 1109, 1125, 1132, 1138, 1145, 1158, 1163, 1172, 1181, 1194, 1202, 1209, 1217, 1230, 1234, 1241, 1247, 1259, 1268, 1277, 1285, 1304, 1313, 1322, 1329, 1345, 1352, 1360, 1367, 1380, 1387, 1395, 1400, 1411, 1416, 1422, 1430, 1442, 1448, 1454, 1458, 1469, 1475, 1480, 1485, 1501, 1508, 1516, 1524, 1538, 1544, 1551, 1557, 1570, 1578, 1584, 1592, 1600, 1605, 1611, 1613, 1623, 1625, 1630, 1638, 1639, 1640, 1643, 1648, 1651, 1653, 1655, 1660, 1661, 1664, 1666, 1671, 1674, 1678, 1680, 1686, 1689, 1691, 1694, 1699, 1703, 1704, 1706, 1710, 1713, 1714, 1715, 1718, 1721, 1722, 1723, 1725, 1726, 1728, 1728, 1729, 1731, 1731, 1732, 1733, 1735, 1735, 1735, 1738, 1739, 1740, 1741, 1742, 1742, 1743, 1745, 1746, 1746, 1746, 1747, 1747, 1747, 1747, 1747, 1747, 1747, 1747, 1747, 1747, 1747, 1747, 1747, 1747, 1747, 1747, 1747, 1747, 1747, 1747, 1747, 1747, 1747, 1747, 1747, 1747, 1747, 1747, 1747, 1747, 1747]","[1010, 1010, 1010, 1010, 1010, 1010, 1010, 1010, 1010, 1010, 1010, 1008, 1004, 999, 989, 985, 979, 970, 960, 954, 951, 946, 931, 925, 916, 907, 879, 862, 844, 830, 795, 784, 773, 761, 742, 732, 723, 715, 701, 695, 687, 678, 664, 656, 649, 641, 629, 625, 621, 616, 606, 598, 591, 584, 571, 565, 557, 550, 537, 532, 526, 519, 508, 503, 496, 492, 484, 480, 475, 471, 459, 454, 450, 445, 435, 430, 425, 420, 404, 397, 390, 384, 368, 361, 353, 345, 333, 325, 320, 311, 301, 294, 286, 281, 270, 265, 259, 248, 246, 243, 239, 231, 226, 224, 218, 211, 208, 203, 199, 192, 185, 179, 175, 165, 159, 153, 150, 136, 132, 128, 123, 117, 112, 107, 105, 100, 97, 94, 91, 88, 86, 83, 82, 81, 79, 79, 77, 76, 74, 74, 73, 69, 68, 67, 65, 63, 61, 60, 58, 55, 55, 55, 53, 53, 53, 53, 53, 53, 53, 53, 53, 53, 53, 53, 53, 53, 53, 53, 53, 53, 53, 53, 53, 53, 53, 53, 53, 53, 53, 53, 53, 53, 53]"
"Promise","Wie oft werden Sie die Hälfte zurückgeben?","Promise","1","undefined","8","0","3","60","1080","271","10","1","1671","0","legacy","[11, 21, 31, 41, 51, 61, 71, 81, 91, 101, 111, 121, 131, 141, 151, 161, 171, 181, 191, 201, 211, 221, 231, 241, 251, 261, 271, 281, 291, 301, 311, 321, 331, 341, 351, 361, 371, 381, 391, 401, 411, 421, 431, 441, 451, 461, 471, 481, 491, 501, 511, 521, 531, 541, 551, 561, 571, 581, 591, 601, 611, 621, 631, 641, 651, 661, 671, 681, 691, 701, 711, 721, 731, 741, 751, 761, 771, 781, 791, 801, 811, 821, 831, 841, 851, 861, 871, 881, 891, 901, 911, 921, 931, 941, 951, 961, 971, 981, 991, 1001, 1011, 1021, 1031, 1041, 1051, 1061, 1071, 1081, 1091, 1101, 1111, 1121, 1131, 1141, 1151, 1161, 1171, 1181, 1191, 1201, 1211, 1221, 1231, 1241, 1251, 1261, 1271, 1281, 1291, 1301, 1311, 1321, 1331, 1341, 1351, 1361, 1371, 1381, 1391, 1401, 1411, 1421, 1431, 1441, 1451, 1461, 1471, 1481, 1491, 1501, 1511, 1521, 1531, 1541, 1551, 1561, 1571, 1581, 1591, 1601, 1611, 1621, 1631, 1641, 1651, 1661, 1671]","1337","1920","[960, 960, 960, 960, 960, 960, 960, 960, 960, 960, 960, 960, 960, 960, 960, 960, 960, 959, 956, 950, 947, 945, 945, 939, 935, 931, 925, 913, 906, 898, 885, 843, 819, 795, 777, 730, 713, 689, 674, 638, 621, 605, 593, 572, 565, 554, 547, 535, 529, 525, 519, 514, 510, 508, 506, 503, 501, 501, 499, 498, 496, 494, 491, 485, 481, 476, 469, 460, 456, 451, 444, 431, 424, 416, 405, 389, 382, 375, 364, 343, 334, 321, 311, 293, 285, 277, 271, 260, 255, 250, 245, 237, 235, 233, 230, 223, 220, 217, 213, 206, 201, 197, 194, 185, 183, 181, 179, 176, 174, 172, 170, 167, 166, 165, 165, 163, 162, 162, 161, 159, 159, 159, 159, 159, 159, 159, 159, 158, 158, 158, 158, 158, 158, 158, 158, 158, 158, 158, 158, 158, 158, 158, 158, 158, 158, 158, 158, 158, 158, 158, 158, 158, 158, 158, 158, 158, 158, 158, 158, 158, 158, 158, 158, 158, 158, 158, 158]","[1010, 1010, 1010, 1010, 1010, 1010, 1010, 1010, 1010, 1010, 1010, 1010, 1010, 1010, 1010, 1006, 1002, 999, 993, 983, 978, 974, 971, 959, 951, 943, 931, 907, 894, 878, 861, 814, 790, 770, 751, 711, 693, 671, 658, 625, 612, 598, 587, 571, 563, 554, 547, 538, 533, 529, 525, 518, 514, 512, 509, 505, 501, 500, 499, 495, 493, 489, 486, 475, 467, 461, 455, 444, 440, 432, 425, 410, 401, 390, 380, 362, 352, 341, 329, 305, 294, 282, 272, 251, 244, 236, 228, 212, 203, 197, 188, 174, 170, 166, 161, 152, 147, 141, 135, 125, 120, 115, 112, 102, 100, 98, 94, 90, 88, 86, 85, 81, 79, 79, 77, 75, 75, 75, 74, 72, 72, 71, 71, 70, 70, 70, 70, 70, 70, 70, 70, 70, 70, 70, 70, 70, 70, 70, 70, 70, 70, 70, 70, 70, 70, 70, 70, 70, 70, 70, 70, 70, 70, 70, 70, 70, 70, 70, 70, 70, 70, 70, 70, 70, 70, 70, 70]"
"Trust","Teilnehmer A hat Ihnen 2 Punkte übermittelt.","Payback","1","undefined","9","0","3","60","1080","751","5","1","2324","0","legacy","[11, 21, 31, 41, 51, 61, 71, 81, 91, 101, 111, 121, 131, 141, 151, 161, 171, 181, 191, 201, 211, 221, 231, 241, 251, 261, 271, 281, 291, 301, 311, 321, 331, 341, 351, 361, 371, 381, 391, 401, 411, 421, 431, 441, 451, 461, 471, 481, 491, 501, 511, 521, 531, 541, 551, 561, 571, 581, 591, 601, 611, 621, 631, 641, 651, 661, 671, 681, 691, 701, 711, 721, 731, 741, 751, 761, 771, 781, 791, 801, 811, 821, 831, 841, 851, 861, 871, 881, 891, 901, 911, 921, 931, 941, 951, 961, 971, 981, 991, 1001, 1011, 1021, 1031, 1041, 1051, 1061, 1071, 1081, 1091, 1101, 1111, 1121, 1131, 1141, 1151, 1161, 1171, 1181, 1191, 1201, 1211, 1221, 1231, 1241, 1251, 1261, 1271, 1281, 1291, 1301, 1311, 1321, 1331, 1341, 1351, 1361, 1371, 1381, 1391, 1401, 1411, 1421, 1431, 1441, 1451, 1461, 1471, 1481, 1491, 1501, 1511, 1521, 1531, 1541, 1551, 1561, 1571, 1581, 1591, 1601, 1611, 1621, 1631, 1641, 1651, 1661, 1671, 1681, 1691, 1701, 1711, 1721, 1731, 1741, 1751, 1761, 1771, 1781, 1791, 1801, 1811, 1821, 1831, 1841, 1851, 1861, 1871, 1881, 1891, 1901, 1911, 1921, 1931, 1941, 1951, 1961, 1971, 1981, 1991, 2001, 2011, 2021, 2031, 2041, 2051, 2061, 2071, 2081, 2091, 2101, 2111, 2121, 2131, 2141, 2151, 2161, 2171, 2181, 2191, 2201, 2211, 2221, 2231, 2241, 2251, 2261, 2271, 2281, 2291, 2301, 2311, 2321]","1337","1920","[960, 960, 960, 960, 960, 960, 960, 960, 960, 960, 960, 960, 960, 960, 960, 960, 960, 960, 960, 960, 960, 960, 960, 960, 960, 960, 960, 960, 960, 960, 960, 960, 960, 960, 960, 960, 960, 960, 960, 960, 960, 960, 960, 960, 960, 960, 960, 960, 960, 960, 960, 960, 960, 960, 960, 960, 960, 960, 960, 960, 960, 960, 960, 960, 960, 960, 960, 960, 960, 953, 949, 947, 941, 926, 911, 895, 878, 833, 804, 771, 743, 694, 680, 669, 660, 648, 644, 642, 640, 636, 636, 634, 633, 630, 628, 627, 625, 619, 616, 612, 609, 600, 596, 589, 583, 569, 561, 554, 545, 528, 522, 515, 506, 495, 490, 488, 484, 482, 482, 478, 478, 475, 475, 475, 475, 475, 475, 475, 475, 475, 475, 475, 475, 475, 473, 470, 464, 452, 444, 435, 427, 408, 400, 390, 382, 364, 355, 347, 340, 329, 325, 321, 317, 309, 304, 299, 294, 286, 282, 278, 276, 264, 258, 248, 239, 218, 208, 198, 184, 164, 154, 142, 134, 116, 109, 106, 102, 99, 99, 99, 99, 99, 99, 99, 99, 99, 99, 99, 99, 99, 99, 99, 99, 99, 99, 99, 99, 99, 99, 99, 99, 99, 99, 99, 99, 99, 99, 99, 99, 99, 99, 99, 99, 99, 99, 99, 99, 99, 99, 99, 99, 99, 99, 99, 99, 99, 99, 99, 99, 99, 99, 99]","[1010, 1010, 1010, 1010, 1010, 1010, 1010, 1010, 1010, 1010, 1010, 1010, 1010, 1010, 1010, 1010, 1010, 1010, 1010, 1010, 1010, 1010, 1010, 1010, 1010, 1010, 1010, 1010, 1010, 1010, 1010, 1010, 1010, 1010, 1010, 1010, 1010, 1010, 1010, 1010, 1010, 1010, 1010, 1010, 1010, 1010, 1010, 1010, 1010, 1010, 1010, 1010, 1010, 1010, 1010, 1010, 1010, 1010, 1010, 1010, 1010, 1010, 1010, 1010, 1010, 1010, 1010, 1010, 1010, 1013, 1013, 1013, 1003, 956, 919, 882, 857, 807, 782, 762, 742, 713, 704, 696, 690, 682, 679, 676, 673, 666, 664, 660, 657, 649, 643, 636, 629, 613, 602, 592, 580, 553, 541, 527, 514, 489, 474, 460, 448, 425, 418, 408, 397, 380, 372, 365, 356, 352, 350, 347, 346, 344, 344, 344, 344, 344, 344, 344, 344, 344, 344, 344, 344, 344, 344, 340, 337, 329, 325, 320, 315, 301, 295, 287, 279, 264, 255, 246, 238, 225, 219, 214, 209, 199, 194, 189, 185, 178, 174, 170, 167, 157, 150, 142, 134, 116, 109, 102, 94, 80, 73, 68, 62, 52, 50, 49, 48, 46, 46, 46, 46, 46, 46, 46, 46, 46, 46, 46, 46, 46, 46, 46, 46, 46, 46, 46, 46, 46, 46, 46, 46, 46, 46, 46, 46, 46, 46, 46, 46, 46, 46, 46, 46, 46, 46, 46, 46, 46, 46, 46, 46, 46, 46, 46, 46, 46, 46, 46, 46, 46, 46, 46]"
"Trust","Teilnehmer A hat Ihnen 2 Punkte übermittelt.","Payback","0","undefined","10","0","3","60","1080","721","10","2","2276","0","legacy","[11, 21, 31, 41, 51, 61, 71, 81, 91, 101, 111, 121, 131, 141, 151, 161, 171, 181, 191, 201, 211, 221, 231, 241, 251, 261, 271, 281, 291, 301, 311, 321, 331, 341, 351, 361, 371, 381, 391, 401, 411, 421, 431, 441, 451, 461, 471, 481, 491, 501, 511, 521, 531, 541, 551, 561, 571, 581, 591, 601, 611, 621, 631, 641, 651, 661, 671, 681, 691, 701, 711, 721, 731, 741, 751, 761, 771, 781, 791, 801, 811, 821, 831, 841, 851, 861, 871, 881, 891, 901, 911, 921, 931, 941, 951, 961, 971, 981, 991, 1001, 1011, 1021, 1031, 1041, 1051, 1061, 1071, 1081, 1091, 1101, 1111, 1121, 1131, 1141, 1151, 1161, 1171, 1181, 1191, 1201, 1211, 1221, 1231, 1241, 1251, 1261, 1271, 1281, 1291, 1301, 1311, 1321, 1331, 1341, 1351, 1361, 1371, 1381, 1391, 1401, 1411, 1421, 1431, 1441, 1451, 1461, 1471, 1481, 1491, 1501, 1511, 1521, 1531, 1541, 1551, 1561, 1571, 1581, 1591, 1601, 1611, 1621, 1631, 1641, 1651, 1661, 1671, 1681, 1691, 1701, 1711, 1721, 1731, 1741, 1751, 1761, 1771, 1781, 1791, 1801, 1811, 1821, 1831, 1841, 1851, 1861, 1871, 1881, 1891, 1901, 1911, 1921, 1931, 1941, 1951, 1961, 1971, 1981, 1991, 2001, 2011, 2021, 2031, 2041, 2051, 2061, 2071, 2081, 2091, 2101, 2111, 2121, 2131, 2141, 2151, 2161, 2171, 2181, 2191, 2201, 2211, 2221, 2231, 2241, 2251, 2261, 2271]","1337","1920","[960, 960, 960, 960, 960, 960, 960, 960, 960, 960, 960, 960, 960, 960, 960, 960, 960, 960, 960, 960, 960, 960, 960, 960, 960, 960, 960, 960, 960, 960, 960, 960, 960, 960, 960, 960, 960, 960, 960, 960, 960, 960, 960, 960, 960, 960, 960, 960, 960, 960, 960, 960, 960, 960, 960, 960, 960, 960, 960, 960, 966, 996, 1010, 1022, 1028, 1033, 1033, 1034, 1034, 1040, 1044, 1051, 1057, 1070, 1075, 1081, 1084, 1088, 1089, 1090, 1093, 1098, 1100, 1103, 1109, 1120, 1125, 1132, 1140, 1161, 1171, 1183, 1198, 1226, 1241, 1254, 1263, 1279, 1287, 1295, 1305, 1324, 1335, 1347, 1362, 1384, 1393, 1402, 1412, 1430, 1436, 1442, 1449, 1464, 1470, 1477, 1483, 1497, 1505, 1510, 1517, 1526, 1528, 1531, 1533, 1541, 1543, 1547, 1551, 1558, 1559, 1563, 1566, 1574, 1579, 1582, 1587, 1600, 1605, 1610, 1615, 1627, 1634, 1639, 1643, 1654, 1659, 1661, 1667, 1676, 1682, 1686, 1690, 1697, 1700, 1703, 1705, 1710, 1711, 1712, 1713, 1716, 1718, 1720, 1722, 1725, 1729, 1729, 1730, 1732, 1733, 1733, 1734, 1734, 1734, 1734, 1734, 1734, 1734, 1734, 1734, 1734, 1734, 1734, 1734, 1734, 1734, 1734, 1734, 1734, 1734, 1734, 1734, 1734, 1734, 1734, 1734, 1734, 1734, 1734, 1734, 1734, 1734, 1734, 1734, 1734, 1734, 1734, 1734, 1734, 1734, 1734, 1734, 1734, 1734, 1734, 1734, 1734, 1734, 1734, 1734, 1734, 1734, 1734, 1734, 1734, 1734]","[1010, 1010, 1010, 1010, 1010, 1010, 1010, 1010, 1010, 1010, 1010, 1010, 1010, 1010, 1010, 1010, 1010, 1010, 1010, 1010, 1010, 1010, 1010, 1010, 1010, 1010, 1010, 1010, 1010, 1010, 1010, 1010, 1010, 1010, 1010, 1010, 1010, 1010, 1010, 1010, 1010, 1010, 1010, 1010, 1010, 1010, 1010, 1010, 1010, 1010, 1010, 1010, 1010, 1010, 1010, 1010, 1010, 1010, 1010, 1010, 1004, 988, 977, 970, 965, 960, 960, 959, 956, 945, 941, 934, 927, 913, 906, 899, 891, 885, 883, 878, 872, 859, 856, 848, 841, 823, 814, 804, 793, 768, 754, 739, 721, 686, 669, 651, 641, 619, 608, 599, 588, 571, 561, 551, 539, 522, 514, 506, 498, 483, 476, 470, 463, 450, 445, 439, 432, 421, 413, 408, 401, 393, 390, 385, 382, 370, 364, 358, 348, 331, 323, 315, 306, 289, 280, 274, 268, 254, 249, 244, 240, 231, 224, 220, 216, 206, 201, 199, 195, 187, 183, 180, 177, 173, 171, 169, 168, 166, 164, 164, 163, 159, 158, 156, 153, 150, 148, 147, 146, 142, 142, 140, 139, 138, 137, 137, 137, 136, 135, 134, 134, 133, 131, 129, 127, 123, 120, 118, 115, 112, 109, 107, 105, 102, 100, 99, 98, 98, 97, 97, 97, 97, 97, 97, 97, 97, 97, 97, 97, 97, 97, 97, 97, 97, 97, 97, 97, 97, 97, 97, 97, 97, 97, 97, 97, 97, 97]"
"Trust","Teilnehmer A hat Ihnen 2 Punkte übermittelt.","Payback","0","undefined","11","0","3","60","1080","571","10","2","1982","0","legacy","[11, 21, 31, 41, 51, 61, 71, 81, 91, 101, 111, 121, 131, 141, 151, 161, 171, 181, 191, 201, 211, 221, 231, 241, 251, 261, 271, 281, 291, 301, 311, 321, 331, 341, 351, 361, 371, 381, 391, 401, 411, 421, 431, 441, 451, 461, 471, 481, 491, 501, 511, 521, 531, 541, 551, 561, 571, 581, 591, 601, 611, 621, 631, 641, 651, 661, 671, 681, 691, 701, 711, 721, 731, 741, 751, 761, 771, 781, 791, 801, 811, 821, 831, 841, 851, 861, 871, 881, 891, 901, 911, 921, 931, 941, 951, 961, 971, 981, 991, 1001, 1011, 1021, 1031, 1041, 1051, 1061, 1071, 1081, 1091, 1101, 1111, 1121, 1131, 1141, 1151, 1161, 1171, 1181, 1191, 1201, 1211, 1221, 1231, 1241, 1251, 1261, 1271, 1281, 1291, 1301, 1311, 1321, 1331, 1341, 1351, 1361, 1371, 1381, 1391, 1401, 1411, 1421, 1431, 1441, 1451, 1461, 1471, 1481, 1491, 1501, 1511, 1521, 1531, 1541, 1551, 1561, 1571, 1581, 1591, 1601, 1611, 1621, 1631, 1641, 1651, 1661, 1671, 1681, 1691, 1701, 1711, 1721, 1731, 1741, 1751, 1761, 1771, 1781, 1791, 1801, 1811, 1821, 1831, 1841, 1851, 1861, 1871, 1881, 1891, 1901, 1911, 1921, 1931, 1941, 1951, 1961, 1971, 1981]","1337","1920","[960, 960, 960, 960, 960, 960, 960, 960, 960, 960, 960, 960, 960, 960, 960, 960, 960, 960, 960, 960, 960, 960, 961, 961, 961, 961, 961, 961, 961, 961, 961, 961, 961, 961, 961, 961, 961, 961, 961, 961, 961, 961, 962, 964, 967, 971, 972, 972, 973, 974, 978, 983, 993, 1003, 1037, 1063, 1085, 1100, 1122, 1128, 1133, 1134, 1137, 1138, 1141, 1145, 1155, 1161, 1167, 1174, 1190, 1199, 1205, 1214, 1234, 1247, 1260, 1281, 1327, 1357, 1391, 1417, 1472, 1493, 1514, 1528, 1549, 1561, 1568, 1577, 1596, 1601, 1608, 1614, 1626, 1631, 1635, 1640, 1648, 1649, 1654, 1658, 1664, 1671, 1672, 1678, 1690, 1695, 1703, 1709, 1718, 1722, 1726, 1730, 1737, 1742, 1745, 1747, 1751, 1754, 1755, 1758, 1761, 1761, 1762, 1764, 1765, 1766, 1766, 1766, 1768, 1769, 1769, 1769, 1769, 1770, 1770, 1770, 1770, 1770, 1772, 1772, 1772, 1773, 1775, 1777, 1782, 1783, 1786, 1788, 1791, 1792, 1795, 1796, 1797, 1800, 1801, 1802, 1803, 1804, 1804, 1804, 1804, 1805, 1805, 1805, 1806, 1806, 1806, 1806, 1806, 1806, 1806, 1806, 1806, 1806, 1806, 1806, 1806, 1806, 1806, 1806, 1806, 1806, 1806, 1806, 1806, 1806, 1806, 1806, 1806, 1806, 1806, 1806, 1806, 1806, 1806, 1806]","[1010, 1010, 1010, 1010, 1010, 1010, 1010, 1010, 1010, 1010, 1010, 1010, 1010, 1010, 1010, 1010, 1010, 1010, 1010, 1010, 1010, 1010, 1009, 1009, 1009, 1009, 1009, 1009, 1009, 1009, 1009, 1009, 1009, 1009, 1009, 1009, 1009, 1009, 1009, 1009, 1009, 1009, 1008, 1008, 1009, 1012, 1012, 1012, 1012, 1012, 1012, 1011, 1004, 995, 966, 946, 931, 919, 906, 901, 898, 897, 894, 893, 889, 886, 876, 870, 864, 859, 846, 838, 831, 822, 804, 794, 783, 764, 725, 698, 672, 647, 601, 583, 564, 552, 531, 522, 512, 501, 479, 470, 463, 454, 440, 435, 429, 424, 415, 413, 408, 403, 395, 388, 385, 378, 361, 352, 343, 336, 322, 316, 311, 305, 294, 288, 285, 281, 273, 270, 268, 264, 261, 259, 257, 255, 253, 251, 250, 249, 245, 244, 244, 242, 240, 238, 238, 237, 235, 235, 232, 231, 224, 221, 214, 210, 198, 195, 189, 183, 177, 173, 169, 165, 158, 152, 149, 144, 139, 135, 132, 131, 128, 124, 124, 122, 119, 117, 117, 115, 112, 111, 110, 108, 106, 105, 105, 105, 105, 105, 105, 105, 105, 105, 105, 105, 105, 105, 105, 105, 105, 105, 105, 105, 105, 105, 105, 105]"
"Promise","Wie oft werden Sie die Hälfte zurückgeben?","Promise","0","undefined","11","0","4","60","1080","441","10","2","1472","0","legacy","[11, 21, 31, 41, 51, 61, 71, 81, 91, 101, 111, 121, 131, 141, 151, 161, 171, 181, 191, 201, 211, 221, 231, 241, 251, 261, 271, 281, 291, 301, 311, 321, 331, 341, 351, 361, 371, 381, 391, 401, 411, 421, 431, 441, 451, 461, 471, 481, 491, 501, 511, 521, 531, 541, 551, 561, 571, 581, 591, 601, 611, 621, 631, 641, 651, 661, 671, 681, 691, 701, 711, 721, 731, 741, 751, 761, 771, 781, 791, 801, 811, 821, 831, 841, 851, 861, 871, 881, 891, 901, 911, 921, 931, 941, 951, 961, 971, 981, 991, 1001, 1011, 1021, 1031, 1041, 1051, 1061, 1071, 1081, 1091, 1101, 1111, 1121, 1131, 1141, 1151, 1161, 1171, 1181, 1191, 1201, 1211, 1221, 1231, 1241, 1251, 1261, 1271, 1281, 1291, 1301, 1311, 1321, 1331, 1341, 1351, 1361, 1371, 1381, 1391, 1401, 1411, 1421, 1431, 1441, 1451, 1461, 1471]","1337","1920","[960, 960, 960, 960, 960, 960, 960, 960, 960, 960, 960, 960, 960, 960, 960, 960, 960, 960, 960, 960, 960, 960, 960, 960, 960, 960, 960, 960, 960, 960, 960, 960, 962, 974, 993, 1041, 1058, 1070, 1076, 1087, 1090, 1096, 1101, 1113, 1121, 1130, 1144, 1176, 1196, 1215, 1230, 1262, 1269, 1279, 1290, 1306, 1313, 1318, 1323, 1334, 1336, 1340, 1345, 1356, 1364, 1371, 1377, 1393, 1399, 1407, 1414, 1430, 1440, 1448, 1459, 1478, 1489, 1496, 1501, 1516, 1521, 1528, 1539, 1568, 1583, 1601, 1619, 1639, 1646, 1651, 1657, 1666, 1670, 1674, 1678, 1687, 1691, 1694, 1697, 1703, 1707, 1711, 1712, 1717, 1720, 1722, 1723, 1727, 1727, 1730, 1733, 1737, 1740, 1742, 1745, 1746, 1747, 1747, 1747, 1747, 1747, 1749, 1749, 1749, 1749, 1749, 1749, 1749, 1749, 1749, 1750, 1750, 1751, 1751, 1751, 1751, 1751, 1751, 1751, 1751, 1751, 1751, 1751, 1751, 1751, 1751, 1751]","[1010, 1010, 1010, 1010, 1010, 1010, 1010, 1010, 1010, 1010, 1010, 1010, 1010, 1010, 1010, 1010, 1010, 1010, 1010, 1010, 1010, 1010, 1010, 1010, 1010, 1010, 1010, 1010, 1010, 1010, 1010, 1010, 1010, 1010, 1010, 1010, 1003, 997, 991, 972, 962, 952, 941, 919, 909, 899, 887, 865, 850, 836, 826, 802, 796, 787, 779, 763, 757, 751, 745, 732, 727, 722, 715, 702, 693, 684, 674, 655, 646, 634, 623, 600, 586, 576, 562, 539, 529, 518, 510, 487, 477, 466, 450, 417, 403, 386, 370, 349, 340, 333, 323, 306, 300, 293, 285, 274, 268, 262, 256, 244, 238, 232, 227, 215, 210, 206, 201, 191, 187, 182, 177, 168, 164, 159, 153, 141, 134, 126, 117, 106, 101, 96, 95, 92, 92, 92, 92, 91, 90, 89, 89, 87, 86, 86, 86, 86, 86, 86, 86, 86, 86, 86, 86, 86, 86, 86, 86]"
"Trust","Teilnehmer A hat Ihnen 2 Punkte übermittelt.","Payback","0","undefined","12","0","4","60","1080","471","10","2","1838","0","legacy","[11, 21, 31, 41, 51, 61, 71, 81, 91, 101, 111, 121, 131, 141, 151, 161, 171, 181, 191, 201, 211, 221, 231, 241, 251, 261, 271, 281, 291, 301, 311, 321, 331, 341, 351, 361, 371, 381, 391, 401, 411, 421, 431, 441, 451, 461, 471, 481, 491, 501, 511, 521, 531, 541, 551, 561, 571, 581, 591, 601, 611, 621, 631, 641, 651, 661, 671, 681, 691, 701, 711, 721, 731, 741, 751, 761, 771, 781, 791, 801, 811, 821, 831, 841, 851, 861, 871, 881, 891, 901, 911, 921, 931, 941, 951, 961, 971, 981, 991, 1001, 1011, 1021, 1031, 1041, 1051, 1061, 1071, 1081, 1091, 1101, 1111, 1121, 1131, 1141, 1151, 1161, 1171, 1181, 1191, 1201, 1211, 1221, 1231, 1241, 1251, 1261, 1271, 1281, 1291, 1301, 1311, 1321, 1331, 1341, 1351, 1361, 1371, 1381, 1391, 1401, 1411, 1421, 1431, 1441, 1451, 1461, 1471, 1481, 1491, 1501, 1511, 1521, 1531, 1541, 1551, 1561, 1571, 1581, 1591, 1601, 1611, 1621, 1631, 1641, 1651, 1661, 1671, 1681, 1691, 1701, 1711, 1721, 1731, 1741, 1751, 1761, 1771, 1781, 1791, 1801, 1811, 1821, 1831]","1337","1920","[960, 960, 960, 960, 960, 960, 960, 960, 960, 960, 960, 960, 960, 960, 960, 960, 960, 960, 960, 960, 960, 960, 961, 961, 961, 962, 962, 962, 962, 962, 963, 965, 966, 967, 969, 969, 969, 970, 973, 975, 976, 980, 985, 988, 992, 997, 1010, 1021, 1034, 1045, 1072, 1082, 1094, 1102, 1116, 1120, 1124, 1128, 1135, 1138, 1142, 1145, 1152, 1155, 1157, 1160, 1166, 1167, 1170, 1173, 1179, 1182, 1186, 1189, 1195, 1198, 1201, 1202, 1207, 1211, 1214, 1216, 1225, 1229, 1233, 1238, 1245, 1250, 1257, 1262, 1272, 1278, 1284, 1291, 1306, 1314, 1322, 1330, 1351, 1362, 1374, 1387, 1415, 1425, 1435, 1443, 1462, 1472, 1480, 1490, 1510, 1519, 1528, 1535, 1549, 1557, 1563, 1572, 1584, 1590, 1598, 1604, 1611, 1616, 1617, 1621, 1627, 1629, 1633, 1637, 1641, 1643, 1644, 1646, 1652, 1656, 1661, 1667, 1679, 1685, 1692, 1698, 1707, 1712, 1718, 1724, 1736, 1741, 1748, 1754, 1766, 1771, 1776, 1781, 1790, 1791, 1793, 1794, 1796, 1798, 1798, 1798, 1800, 1800, 1800, 1800, 1800, 1800, 1800, 1800, 1800, 1800, 1800, 1800, 1800, 1800, 1800, 1800, 1800, 1800, 1800, 1800, 1800]","[1010, 1010, 1010, 1010, 1010, 1010, 1010, 1010, 1010, 1010, 1010, 1010, 1010, 1010, 1010, 1010, 1010, 1010, 1010, 1010, 1011, 1011, 1011, 1011, 1011, 1010, 1010, 1010, 1010, 1010, 1008, 1006, 1005, 1004, 1002, 1002, 1000, 999, 996, 993, 990, 985, 974, 964, 954, 943, 911, 884, 860, 839, 790, 774, 752, 741, 718, 712, 703, 698, 686, 680, 675, 671, 663, 658, 656, 652, 646, 644, 641, 638, 632, 631, 627, 624, 618, 617, 613, 611, 603, 599, 593, 589, 577, 574, 568, 562, 554, 549, 542, 537, 528, 522, 517, 511, 499, 492, 484, 478, 461, 451, 443, 436, 420, 415, 410, 406, 396, 391, 387, 380, 366, 360, 353, 348, 337, 332, 327, 322, 315, 311, 305, 301, 295, 291, 289, 285, 279, 277, 273, 268, 262, 260, 255, 251, 237, 231, 223, 214, 197, 188, 178, 170, 155, 146, 139, 132, 117, 111, 103, 97, 83, 77, 72, 68, 59, 58, 56, 54, 51, 50, 49, 49, 47, 47, 47, 47, 47, 47, 47, 47, 47, 47, 47, 47, 47, 47, 47, 47, 47, 47, 47, 47, 47]"
"Trust","Teilnehmer A hat Ihnen 2 Punkte übermittelt.","Payback","0","undefined","13","0","4","60","1080","441","10","2","2517","0","legacy","[11, 21, 31, 41, 51, 61, 71, 81, 91, 101, 111, 121, 131, 141, 151, 161, 171, 181, 191, 201, 211, 221, 231, 241, 251, 261, 271, 281, 291, 301, 311, 321, 331, 341, 351, 361, 371, 381, 391, 401, 411, 421, 431, 441, 451, 461, 471, 481, 491, 501, 511, 521, 531, 541, 551, 561, 571, 581, 591, 601, 611, 621, 631, 641, 651, 661, 671, 681, 691, 701, 711, 721, 731, 741, 751, 761, 771, 781, 791, 801, 811, 821, 831, 841, 851, 861, 871, 881, 891, 901, 911, 921, 931, 941, 951, 961, 971, 981, 991, 1001, 1011, 1021, 1031, 1041, 1051, 1061, 1071, 1081, 1091, 1101, 1111, 1121, 1131, 1141, 1151, 1161, 1171, 1181, 1191, 1201, 1211, 1221, 1231, 1241, 1251, 1261, 1271, 1281, 1291, 1301, 1311, 1321, 1331, 1341, 1351, 1361, 1371, 1381, 1391, 1401, 1411, 1421, 1431, 1441, 1451, 1461, 1471, 1481, 1491, 1501, 1511, 1521, 1531, 1541, 1551, 1561, 1571, 1581, 1591, 1601, 1611, 1621, 1631, 1641, 1651, 1661, 1671, 1681, 1691, 1701, 1711, 1721, 1731, 1741, 1751, 1761, 1771, 1781, 1791, 1801, 1811, 1821, 1831, 1841, 1851, 1861, 1871, 1881, 1891, 1901, 1911, 1921, 1931, 1941, 1951, 1961, 1971, 1981, 1991, 2001, 2011, 2021, 2031, 2041, 2051, 2061, 2071, 2081, 2091, 2101, 2111, 2121, 2131, 2141, 2151, 2161, 2171, 2181, 2191, 2201, 2211, 2221, 2231, 2241, 2251, 2261, 2271, 2281, 2291, 2301, 2311, 2321, 2331, 2341, 2351, 2361, 2371, 2381, 2391, 2401, 2411, 2421, 2431, 2441, 2451, 2461, 2471, 2481, 2491, 2501, 2511]","1337","1920","[960, 960, 960, 960, 960, 960, 960, 960, 960, 960, 960, 960, 960, 960, 960, 961, 962, 963, 965, 966, 966, 966, 968, 969, 969, 969, 969, 969, 970, 971, 973, 975, 976, 977, 981, 984, 985, 989, 993, 996, 999, 1001, 1007, 1009, 1014, 1019, 1029, 1033, 1037, 1045, 1055, 1060, 1063, 1070, 1080, 1083, 1088, 1092, 1096, 1099, 1102, 1106, 1116, 1120, 1127, 1132, 1144, 1149, 1154, 1160, 1170, 1177, 1185, 1191, 1211, 1220, 1230, 1240, 1259, 1269, 1279, 1287, 1303, 1311, 1318, 1327, 1344, 1351, 1360, 1368, 1381, 1388, 1395, 1400, 1411, 1416, 1420, 1425, 1434, 1436, 1441, 1445, 1452, 1456, 1460, 1464, 1475, 1480, 1485, 1490, 1499, 1503, 1508, 1512, 1522, 1530, 1535, 1542, 1557, 1563, 1570, 1575, 1585, 1592, 1595, 1601, 1608, 1613, 1620, 1624, 1634, 1637, 1642, 1647, 1656, 1660, 1662, 1667, 1672, 1675, 1678, 1682, 1689, 1692, 1696, 1698, 1705, 1706, 1707, 1710, 1716, 1717, 1719, 1720, 1724, 1725, 1726, 1729, 1729, 1729, 1729, 1729, 1729, 1730, 1730, 1732, 1732, 1732, 1732, 1733, 1733, 1734, 1734, 1736, 1736, 1736, 1736, 1737, 1738, 1738, 1738, 1738, 1739, 1739, 1740, 1740, 1741, 1743, 1743, 1743, 1744, 1746, 1746, 1746, 1747, 1747, 1747, 1747, 1747, 1747, 1747, 1747, 1747, 1747, 1748, 1748, 1750, 1750, 1750, 1750, 1751, 1751, 1751, 1752, 1753, 1754, 1754, 1756, 1756, 1757, 1757, 1758, 1758, 1758, 1758, 1758, 1758, 1758, 1758, 1758, 1758, 1758, 1758, 1758, 1758, 1758, 1758, 1758, 1758, 1758, 1758, 1758, 1758, 1758, 1758, 1758, 1758, 1758, 1758, 1758, 1758]","[1010, 1010, 1010, 1010, 1010, 1010, 1010, 1010, 1010, 1010, 1010, 1010, 1010, 1010, 1010, 1008, 1006, 1003, 999, 995, 994, 992, 988, 987, 987, 987, 985, 985, 984, 982, 980, 977, 975, 973, 967, 965, 961, 958, 954, 949, 948, 945, 940, 938, 934, 930, 922, 919, 916, 910, 902, 897, 895, 889, 880, 878, 875, 871, 867, 864, 862, 859, 852, 848, 844, 840, 832, 828, 824, 821, 813, 807, 803, 799, 788, 784, 776, 770, 759, 752, 744, 738, 727, 721, 716, 709, 699, 692, 686, 679, 670, 664, 658, 652, 640, 635, 629, 621, 610, 604, 598, 591, 578, 572, 565, 557, 547, 541, 536, 531, 521, 517, 512, 508, 500, 494, 491, 486, 475, 471, 467, 463, 456, 452, 450, 446, 441, 437, 431, 427, 418, 416, 411, 405, 394, 387, 383, 377, 367, 361, 355, 350, 338, 334, 327, 324, 313, 309, 306, 302, 292, 289, 284, 279, 271, 268, 264, 258, 250, 247, 243, 240, 233, 231, 228, 225, 220, 217, 216, 212, 208, 206, 203, 200, 198, 196, 194, 192, 190, 188, 188, 186, 183, 182, 181, 179, 176, 174, 173, 172, 169, 167, 167, 165, 161, 160, 158, 157, 154, 151, 150, 148, 145, 143, 141, 140, 135, 133, 131, 129, 123, 121, 118, 115, 110, 109, 108, 105, 103, 101, 100, 99, 99, 97, 97, 97, 97, 97, 97, 97, 97, 97, 97, 97, 97, 97, 97, 97, 97, 97, 97, 97, 97, 97, 97, 97, 97, 97, 97, 97, 97]"
"Trust","Teilnehmer A hat Ihnen 2 Punkte übermittelt.","Payback","1","undefined","14","0","4","60","1080","361","5","1","2181","0","legacy","[11, 21, 31, 41, 51, 61, 71, 81, 91, 101, 111, 121, 131, 141, 151, 161, 171, 181, 191, 201, 211, 221, 231, 241, 251, 261, 271, 281, 291, 301, 311, 321, 331, 341, 351, 361, 371, 381, 391, 401, 411, 421, 431, 441, 451, 461, 471, 481, 491, 501, 511, 521, 531, 541, 551, 561, 571, 581, 591, 601, 611, 621, 631, 641, 651, 661, 671, 681, 691, 701, 711, 721, 731, 741, 751, 761, 771, 781, 791, 801, 811, 821, 831, 841, 851, 861, 871, 881, 891, 901, 911, 921, 931, 941, 951, 961, 971, 981, 991, 1001, 1011, 1021, 1031, 1041, 1051, 1061, 1071, 1081, 1091, 1101, 1111, 1121, 1131, 1141, 1151, 1161, 1171, 1181, 1191, 1201, 1211, 1221, 1231, 1241, 1251, 1261, 1271, 1281, 1291, 1301, 1311, 1321, 1331, 1341, 1351, 1361, 1371, 1381, 1391, 1401, 1411, 1421, 1431, 1441, 1451, 1461, 1471, 1481, 1491, 1501, 1511, 1521, 1531, 1541, 1551, 1561, 1571, 1581, 1591, 1601, 1611, 1621, 1631, 1641, 1651, 1661, 1671, 1681, 1691, 1701, 1711, 1721, 1731, 1741, 1751, 1761, 1771, 1781, 1791, 1801, 1811, 1821, 1831, 1841, 1851, 1861, 1871, 1881, 1891, 1901, 1911, 1921, 1931, 1941, 1951, 1961, 1971, 1981, 1991, 2001, 2011, 2021, 2031, 2041, 2051, 2061, 2071, 2081, 2091, 2101, 2111, 2121, 2131, 2141, 2151, 2161, 2171, 2181]","1337","1920","[960, 960, 960, 960, 960, 960, 960, 960, 960, 960, 960, 960, 960, 960, 960, 960, 960, 960, 960, 960, 961, 961, 961, 961, 961, 961, 961, 961, 961, 961, 955, 952, 950, 947, 941, 939, 936, 934, 926, 920, 914, 907, 893, 887, 878, 871, 857, 850, 846, 842, 836, 834, 832, 830, 828, 827, 824, 822, 818, 816, 811, 807, 797, 790, 784, 777, 761, 752, 739, 732, 710, 701, 691, 683, 660, 648, 632, 624, 595, 583, 571, 560, 536, 527, 518, 508, 490, 481, 474, 466, 452, 447, 441, 435, 424, 419, 413, 411, 403, 399, 394, 391, 383, 378, 371, 364, 344, 335, 325, 313, 288, 275, 264, 256, 243, 235, 228, 219, 204, 198, 189, 183, 171, 165, 159, 154, 145, 142, 139, 138, 135, 133, 131, 130, 126, 124, 122, 120, 115, 114, 112, 111, 108, 105, 104, 103, 100, 100, 100, 97, 97, 97, 97, 97, 97, 97, 97, 97, 97, 97, 97, 97, 97, 97, 97, 97, 97, 97, 97, 97, 96, 96, 96, 96, 96, 96, 96, 96, 96, 96, 96, 96, 96, 96, 96, 96, 96, 96, 96, 96, 96, 96, 96, 96, 96, 96, 96, 96, 96, 96, 96, 96, 96, 96, 96, 96, 96, 96, 96, 96, 96, 96, 96, 96, 96, 96, 96, 96]","[1010, 1010, 1010, 1010, 1010, 1010, 1010, 1010, 1010, 1010, 1010, 1010, 1010, 1010, 1010, 1010, 1010, 1010, 1009, 1006, 1003, 1003, 1001, 999, 999, 997, 993, 993, 991, 987, 976, 968, 963, 956, 941, 933, 925, 918, 895, 884, 871, 856, 826, 813, 796, 786, 764, 753, 745, 737, 728, 722, 718, 714, 705, 702, 696, 688, 677, 668, 658, 648, 625, 612, 602, 589, 562, 548, 531, 521, 489, 477, 465, 454, 429, 414, 399, 388, 360, 348, 339, 329, 309, 301, 293, 285, 269, 264, 259, 252, 240, 236, 232, 229, 221, 219, 216, 216, 212, 210, 208, 207, 203, 201, 198, 196, 191, 186, 182, 176, 169, 163, 159, 154, 146, 142, 138, 132, 125, 121, 115, 112, 105, 102, 100, 97, 92, 90, 88, 87, 84, 82, 80, 79, 76, 73, 71, 69, 64, 61, 58, 56, 51, 49, 45, 41, 36, 34, 32, 30, 26, 26, 24, 23, 22, 22, 22, 22, 22, 22, 22, 22, 22, 22, 22, 22, 22, 22, 22, 22, 23, 23, 26, 28, 33, 34, 37, 39, 44, 47, 49, 52, 54, 56, 57, 58, 58, 58, 58, 58, 58, 58, 58, 58, 58, 58, 58, 58, 58, 58, 58, 58, 58, 58, 58, 58, 58, 58, 58, 58, 58, 58, 58, 58, 58, 58, 58, 58]"
"Promise","Wie oft werden Sie die Hälfte zurückgeben?","Promise","0","undefined","14","0","5","60","1080","291","5","2","1353","0","legacy","[11, 21, 31, 41, 51, 61, 71, 81, 91, 101, 111, 121, 131, 141, 151, 161, 171, 181, 191, 201, 211, 221, 231, 241, 251, 261, 271, 281, 291, 301, 311, 321, 331, 341, 351, 361, 371, 381, 391, 401, 411, 421, 431, 441, 451, 461, 471, 481, 491, 501, 511, 521, 531, 541, 551, 561, 571, 581, 591, 601, 611, 621, 631, 641, 651, 661, 671, 681, 691, 701, 711, 721, 731, 741, 751, 761, 771, 781, 791, 801, 811, 821, 831, 841, 851, 861, 871, 881, 891, 901, 911, 921, 931, 941, 951, 961, 971, 981, 991, 1001, 1011, 1021, 1031, 1041, 1051, 1061, 1071, 1081, 1091, 1101, 1111, 1121, 1131, 1141, 1151, 1161, 1171, 1181, 1191, 1201, 1211, 1221, 1231, 1241, 1251, 1261, 1271, 1281, 1291, 1301, 1311, 1321, 1331, 1341, 1351]","1337","1920","[960, 960, 960, 960, 960, 960, 960, 960, 960, 960, 960, 960, 960, 960, 960, 960, 960, 960, 960, 960, 960, 960, 960, 960, 972, 983, 993, 1010, 1054, 1074, 1099, 1118, 1157, 1170, 1190, 1206, 1249, 1276, 1303, 1330, 1386, 1409, 1434, 1461, 1508, 1526, 1548, 1561, 1583, 1592, 1601, 1608, 1622, 1627, 1633, 1636, 1643, 1643, 1645, 1648, 1653, 1656, 1657, 1659, 1664, 1664, 1666, 1669, 1672, 1675, 1678, 1683, 1691, 1696, 1701, 1705, 1716, 1720, 1725, 1729, 1739, 1745, 1747, 1751, 1759, 1760, 1761, 1763, 1767, 1769, 1769, 1771, 1773, 1773, 1773, 1775, 1776, 1776, 1777, 1777, 1778, 1778, 1778, 1778, 1778, 1778, 1779, 1779, 1779, 1780, 1780, 1780, 1780, 1780, 1780, 1780, 1780, 1780, 1780, 1780, 1780, 1780, 1780, 1780, 1780, 1780, 1780, 1780, 1780, 1780, 1780, 1780, 1780, 1780, 1780]","[1010, 1010, 1010, 1010, 1010, 1010, 1010, 1010, 1010, 1010, 1010, 1010, 1010, 1010, 1010, 1010, 1010, 1010, 1010, 1010, 1010, 1010, 1010, 1010, 997, 985, 976, 961, 922, 898, 869, 844, 795, 775, 754, 736, 686, 660, 633, 606, 549, 523, 494, 467, 427, 410, 394, 385, 365, 358, 350, 343, 332, 324, 318, 314, 304, 303, 300, 297, 291, 288, 287, 283, 278, 278, 276, 273, 268, 262, 260, 253, 241, 235, 227, 221, 205, 200, 193, 185, 175, 169, 164, 160, 150, 146, 142, 138, 131, 127, 124, 120, 115, 112, 109, 108, 104, 104, 102, 101, 99, 98, 98, 97, 95, 95, 93, 92, 90, 88, 88, 88, 88, 88, 88, 88, 88, 88, 88, 88, 88, 88, 88, 88, 88, 88, 88, 88, 88, 88, 88, 88, 88, 88, 88]"
"Trust","Teilnehmer A hat Ihnen 2 Punkte übermittelt.","Payback","0","undefined","15","0","5","60","1080","231","10","2","1821","0","legacy","[11, 21, 31, 41, 51, 61, 71, 81, 91, 101, 111, 121, 131, 141, 151, 161, 171, 181, 191, 201, 211, 221, 231, 241, 251, 261, 271, 281, 291, 301, 311, 321, 331, 341, 351, 361, 371, 381, 391, 401, 411, 421, 431, 441, 451, 461, 471, 481, 491, 501, 511, 521, 531, 541, 551, 561, 571, 581, 591, 601, 611, 621, 631, 641, 651, 661, 671, 681, 691, 701, 711, 721, 731, 741, 751, 761, 771, 781, 791, 801, 811, 821, 831, 841, 851, 861, 871, 881, 891, 901, 911, 921, 931, 941, 951, 961, 971, 981, 991, 1001, 1011, 1021, 1031, 1041, 1051, 1061, 1071, 1081, 1091, 1101, 1111, 1121, 1131, 1141, 1151, 1161, 1171, 1181, 1191, 1201, 1211, 1221, 1231, 1241, 1251, 1261, 1271, 1281, 1291, 1301, 1311, 1321, 1331, 1341, 1351, 1361, 1371, 1381, 1391, 1401, 1411, 1421, 1431, 1441, 1451, 1461, 1471, 1481, 1491, 1501, 1511, 1521, 1531, 1541, 1551, 1561, 1571, 1581, 1591, 1601, 1611, 1621, 1631, 1641, 1651, 1661, 1671, 1681, 1691, 1701, 1711, 1721, 1731, 1741, 1751, 1761, 1771, 1781, 1791, 1801, 1811, 1821]","1337","1920","[960, 960, 960, 960, 960, 960, 960, 960, 960, 960, 960, 960, 960, 960, 962, 964, 969, 973, 988, 994, 1001, 1004, 1014, 1022, 1027, 1035, 1050, 1058, 1066, 1075, 1093, 1102, 1112, 1121, 1144, 1153, 1162, 1169, 1183, 1190, 1197, 1202, 1215, 1223, 1235, 1243, 1266, 1277, 1288, 1302, 1319, 1329, 1336, 1344, 1357, 1364, 1371, 1379, 1390, 1394, 1401, 1406, 1417, 1423, 1429, 1435, 1447, 1456, 1460, 1467, 1480, 1486, 1491, 1496, 1506, 1512, 1516, 1521, 1529, 1534, 1539, 1546, 1558, 1565, 1572, 1581, 1597, 1602, 1610, 1615, 1627, 1631, 1635, 1640, 1651, 1654, 1660, 1662, 1669, 1671, 1675, 1677, 1681, 1683, 1685, 1687, 1691, 1693, 1695, 1697, 1700, 1702, 1702, 1704, 1707, 1709, 1709, 1710, 1712, 1712, 1713, 1714, 1715, 1716, 1717, 1717, 1718, 1718, 1718, 1719, 1719, 1719, 1719, 1719, 1719, 1719, 1719, 1719, 1720, 1720, 1720, 1720, 1720, 1720, 1720, 1720, 1720, 1720, 1721, 1721, 1722, 1724, 1724, 1726, 1733, 1738, 1742, 1748, 1758, 1762, 1766, 1768, 1772, 1772, 1774, 1774, 1774, 1774, 1774, 1774, 1774, 1774, 1774, 1774, 1774, 1774, 1774, 1774, 1775, 1775, 1775, 1775]","[1010, 1010, 1010, 1010, 1010, 1010, 1010, 1010, 1010, 1010, 1010, 1010, 1010, 1008, 1001, 998, 992, 984, 965, 958, 951, 947, 937, 930, 926, 918, 903, 896, 887, 878, 860, 852, 842, 833, 810, 798, 788, 779, 764, 756, 747, 738, 719, 709, 695, 685, 656, 642, 629, 614, 596, 585, 575, 566, 550, 540, 531, 519, 503, 495, 487, 479, 464, 456, 449, 443, 427, 421, 416, 408, 393, 387, 380, 375, 366, 361, 357, 354, 344, 337, 332, 323, 308, 299, 291, 280, 264, 255, 246, 240, 224, 219, 215, 207, 196, 191, 183, 181, 172, 170, 166, 164, 159, 158, 156, 153, 149, 148, 146, 144, 141, 140, 139, 137, 136, 134, 133, 131, 130, 130, 128, 128, 127, 126, 126, 125, 125, 125, 125, 124, 124, 123, 123, 123, 123, 123, 123, 123, 122, 122, 122, 122, 122, 122, 122, 122, 122, 122, 120, 120, 118, 116, 116, 113, 106, 101, 94, 88, 79, 75, 72, 68, 63, 62, 60, 60, 60, 60, 60, 60, 60, 60, 60, 60, 60, 60, 60, 60, 59, 59, 59, 59]"
"NoTrust","Teilnehmer A hat Ihnen keine 2 Punkte übermittelt.","Payback","0","undefined","16","0","5","60","1080","231","0","2","1821","0","legacy","[11, 21, 31, 41, 51, 61, 71, 81, 91, 101, 111, 121, 131, 141, 151, 161, 171, 181, 191, 201, 211, 221, 231, 241, 251, 261, 271, 281, 291, 301, 311, 321, 331, 341, 351, 361, 371, 381, 391, 401, 411, 421, 431, 441, 451, 461, 471, 481, 491, 501, 511, 521, 531, 541, 551, 561, 571, 581, 591, 601, 611, 621, 631, 641, 651, 661, 671, 681, 691, 701, 711, 721, 731, 741, 751, 761, 771, 781, 791, 801, 811, 821, 831, 841, 851, 861, 871, 881, 891, 901, 911, 921, 931, 941, 951, 961, 971, 981, 991, 1001, 1011, 1021, 1031, 1041, 1051, 1061, 1071, 1081, 1091, 1101, 1111, 1121, 1131, 1141, 1151, 1161, 1171, 1181, 1191, 1201, 1211, 1221, 1231, 1241, 1251, 1261, 1271, 1281, 1291, 1301, 1311, 1321, 1331, 1341, 1351, 1361, 1371, 1381, 1391, 1401, 1411, 1421, 1431, 1441, 1451, 1461, 1471, 1481, 1491, 1501, 1511, 1521, 1531, 1541, 1551, 1561, 1571, 1581, 1591, 1601, 1611, 1621, 1631, 1641, 1651, 1661, 1671, 1681, 1691, 1701, 1711, 1721, 1731, 1741, 1751, 1761, 1771, 1781, 1791, 1801, 1811, 1821]","1337","1920","[960, 960, 960, 960, 960, 960, 960, 960, 960, 960, 960, 960, 960, 960, 962, 964, 969, 973, 988, 994, 1001, 1004, 1014, 1022, 1027, 1035, 1050, 1058, 1066, 1075, 1093, 1102, 1112, 1121, 1144, 1153, 1162, 1169, 1183, 1190, 1197, 1202, 1215, 1223, 1235, 1243, 1266, 1277, 1288, 1302, 1319, 1329, 1336, 1344, 1357, 1364, 1371, 1379, 1390, 1394, 1401, 1406, 1417, 1423, 1429, 1435, 1447, 1456, 1460, 1467, 1480, 1486, 1491, 1496, 1506, 1512, 1516, 1521, 1529, 1534, 1539, 1546, 1558, 1565, 1572, 1581, 1597, 1602, 1610, 1615, 1627, 1631, 1635, 1640, 1651, 1654, 1660, 1662, 1669, 1671, 1675, 1677, 1681, 1683, 1685, 1687, 1691, 1693, 1695, 1697, 1700, 1702, 1702, 1704, 1707, 1709, 1709, 1710, 1712, 1712, 1713, 1714, 1715, 1716, 1717, 1717, 1718, 1718, 1718, 1719, 1719, 1719, 1719, 1719, 1719, 1719, 1719, 1719, 1720, 1720, 1720, 1720, 1720, 1720, 1720, 1720, 1720, 1720, 1721, 1721, 1722, 1724, 1724, 1726, 1733, 1738, 1742, 1748, 1758, 1762, 1766, 1768, 1772, 1772, 1774, 1774, 1774, 1774, 1774, 1774, 1774, 1774, 1774, 1774, 1774, 1774, 1774, 1774, 1775, 1775, 1775, 1775]","[1010, 1010, 1010, 1010, 1010, 1010, 1010, 1010, 1010, 1010, 1010, 1010, 1010, 1008, 1001, 998, 992, 984, 965, 958, 951, 947, 937, 930, 926, 918, 903, 896, 887, 878, 860, 852, 842, 833, 810, 798, 788, 779, 764, 756, 747, 738, 719, 709, 695, 685, 656, 642, 629, 614, 596, 585, 575, 566, 550, 540, 531, 519, 503, 495, 487, 479, 464, 456, 449, 443, 427, 421, 416, 408, 393, 387, 380, 375, 366, 361, 357, 354, 344, 337, 332, 323, 308, 299, 291, 280, 264, 255, 246, 240, 224, 219, 215, 207, 196, 191, 183, 181, 172, 170, 166, 164, 159, 158, 156, 153, 149, 148, 146, 144, 141, 140, 139, 137, 136, 134, 133, 131, 130, 130, 128, 128, 127, 126, 126, 125, 125, 125, 125, 124, 124, 123, 123, 123, 123, 123, 123, 123, 122, 122, 122, 122, 122, 122, 122, 122, 122, 122, 120, 120, 118, 116, 116, 113, 106, 101, 94, 88, 79, 75, 72, 68, 63, 62, 60, 60, 60, 60, 60, 60, 60, 60, 60, 60, 60, 60, 60, 60, 59, 59, 59, 59]"
"Trust","Teilnehmer A hat Ihnen 2 Punkte übermittelt.","Payback","0","undefined","17","0","5","60","1080","301","10","2","2019","0","legacy","[11, 21, 31, 41, 51, 61, 71, 81, 91, 101, 111, 121, 131, 141, 151, 161, 171, 181, 191, 201, 211, 221, 231, 241, 251, 261, 271, 281, 291, 301, 311, 321, 331, 341, 351, 361, 371, 381, 391, 401, 411, 421, 431, 441, 451, 461, 471, 481, 491, 501, 511, 521, 531, 541, 551, 561, 571, 581, 591, 601, 611, 621, 631, 641, 651, 661, 671, 681, 691, 701, 711, 721, 731, 741, 751, 761, 771, 781, 791, 801, 811, 821, 831, 841, 851, 861, 871, 881, 891, 901, 911, 921, 931, 941, 951, 961, 971, 981, 991, 1001, 1011, 1021, 1031, 1041, 1051, 1061, 1071, 1081, 1091, 1101, 1111, 1121, 1131, 1141, 1151, 1161, 1171, 1181, 1191, 1201, 1211, 1221, 1231, 1241, 1251, 1261, 1271, 1281, 1291, 1301, 1311, 1321, 1331, 1341, 1351, 1361, 1371, 1381, 1391, 1401, 1411, 1421, 1431, 1441, 1451, 1461, 1471, 1481, 1491, 1501, 1511, 1521, 1531, 1541, 1551, 1561, 1571, 1581, 1591, 1601, 1611, 1621, 1631, 1641, 1651, 1661, 1671, 1681, 1691, 1701, 1711, 1721, 1731, 1741, 1751, 1761, 1771, 1781, 1791, 1801, 1811, 1821, 1831, 1841, 1851, 1861, 1871, 1881, 1891, 1901, 1911, 1921, 1931, 1941, 1951, 1961, 1971, 1981, 1991, 2001, 2011]","1337","1920","[960, 960, 960, 960, 960, 960, 960, 960, 960, 960, 960, 961, 961, 963, 964, 965, 965, 965, 965, 966, 968, 969, 970, 971, 973, 980, 985, 989, 996, 1003, 1009, 1015, 1020, 1028, 1035, 1040, 1047, 1058, 1062, 1068, 1075, 1088, 1094, 1102, 1110, 1127, 1135, 1143, 1153, 1168, 1174, 1182, 1190, 1206, 1213, 1223, 1231, 1248, 1260, 1273, 1287, 1311, 1326, 1341, 1358, 1389, 1407, 1422, 1437, 1466, 1480, 1492, 1504, 1529, 1542, 1557, 1567, 1593, 1601, 1612, 1622, 1635, 1640, 1645, 1649, 1656, 1658, 1660, 1662, 1665, 1666, 1667, 1669, 1670, 1672, 1673, 1674, 1675, 1677, 1679, 1681, 1685, 1687, 1688, 1691, 1693, 1694, 1695, 1696, 1699, 1700, 1700, 1700, 1702, 1702, 1702, 1703, 1704, 1705, 1705, 1705, 1706, 1706, 1707, 1707, 1707, 1707, 1707, 1707, 1708, 1708, 1708, 1710, 1710, 1710, 1711, 1712, 1712, 1713, 1713, 1713, 1714, 1714, 1714, 1714, 1714, 1714, 1714, 1714, 1714, 1714, 1714, 1714, 1714, 1714, 1714, 1714, 1714, 1714, 1714, 1714, 1714, 1714, 1714, 1714, 1714, 1714, 1714, 1714, 1714, 1714, 1714, 1714, 1714, 1714, 1714, 1714, 1714, 1714, 1714, 1714, 1714, 1714, 1714, 1714, 1714, 1714, 1714, 1714, 1714, 1714, 1714, 1714, 1714, 1714, 1714, 1714, 1714, 1714, 1714, 1714]","[1010, 1010, 1010, 1010, 1010, 1010, 1010, 1010, 1010, 1010, 1010, 1008, 1004, 997, 994, 992, 992, 992, 992, 990, 989, 987, 987, 985, 983, 973, 967, 959, 948, 930, 920, 910, 903, 887, 880, 872, 864, 853, 849, 843, 835, 821, 814, 806, 796, 778, 768, 759, 747, 727, 721, 711, 702, 686, 679, 667, 658, 635, 619, 602, 582, 548, 528, 510, 489, 449, 428, 408, 390, 353, 335, 318, 304, 267, 250, 230, 213, 179, 167, 151, 141, 126, 121, 116, 110, 102, 101, 98, 97, 94, 93, 93, 92, 90, 88, 87, 87, 86, 85, 84, 83, 80, 79, 77, 76, 74, 73, 73, 72, 70, 69, 69, 69, 67, 67, 67, 67, 66, 66, 66, 66, 65, 65, 64, 64, 64, 64, 64, 64, 63, 63, 63, 61, 61, 61, 60, 60, 60, 59, 58, 58, 58, 57, 57, 57, 57, 57, 57, 57, 57, 57, 57, 57, 57, 57, 57, 57, 57, 57, 57, 57, 57, 57, 57, 57, 57, 57, 57, 57, 57, 57, 57, 57, 57, 57, 57, 57, 57, 57, 57, 57, 57, 57, 57, 57, 57, 57, 57, 57, 57, 57, 57, 57, 57, 57, 57, 57, 57, 57, 57, 57]"
"Promise","Wie oft werden Sie die Hälfte zurückgeben?","Promise","1","undefined","17","0","6","60","1080","281","10","1","2217","0","legacy","[11, 21, 31, 41, 51, 61, 71, 81, 91, 101, 111, 121, 131, 141, 151, 161, 171, 181, 191, 201, 211, 221, 231, 241, 251, 261, 271, 281, 291, 301, 311, 321, 331, 341, 351, 361, 371, 381, 391, 401, 411, 421, 431, 441, 451, 461, 471, 481, 491, 501, 511, 521, 531, 541, 551, 561, 571, 581, 591, 601, 611, 621, 631, 641, 651, 661, 671, 681, 691, 701, 711, 721, 731, 741, 751, 761, 771, 781, 791, 801, 811, 821, 831, 841, 851, 861, 871, 881, 891, 901, 911, 921, 931, 941, 951, 961, 971, 981, 991, 1001, 1011, 1021, 1031, 1041, 1051, 1061, 1071, 1081, 1091, 1101, 1111, 1121, 1131, 1141, 1151, 1161, 1171, 1181, 1191, 1201, 1211, 1221, 1231, 1241, 1251, 1261, 1271, 1281, 1291, 1301, 1311, 1321, 1331, 1341, 1351, 1361, 1371, 1381, 1391, 1401, 1411, 1421, 1431, 1441, 1451, 1461, 1471, 1481, 1491, 1501, 1511, 1521, 1531, 1541, 1551, 1561, 1571, 1581, 1591, 1601, 1611, 1621, 1631, 1641, 1651, 1661, 1671, 1681, 1691, 1701, 1711, 1721, 1731, 1741, 1751, 1761, 1771, 1781, 1791, 1801, 1811, 1821, 1831, 1841, 1851, 1861, 1871, 1881, 1891, 1901, 1911, 1921, 1931, 1941, 1951, 1961, 1971, 1981, 1991, 2001, 2011, 2021, 2031, 2041, 2051, 2061, 2071, 2081, 2091, 2101, 2111, 2121, 2131, 2141, 2151, 2161, 2171, 2181, 2191, 2201, 2211]","1337","1920","[960, 960, 960, 960, 960, 960, 960, 960, 960, 960, 960, 960, 960, 960, 960, 960, 960, 960, 960, 957, 955, 951, 948, 943, 940, 934, 929, 916, 906, 893, 880, 854, 844, 832, 816, 790, 772, 757, 741, 700, 685, 670, 659, 644, 638, 634, 629, 621, 617, 611, 605, 591, 584, 577, 564, 535, 518, 501, 485, 461, 448, 436, 424, 406, 396, 387, 379, 365, 359, 353, 348, 337, 330, 324, 317, 307, 303, 298, 293, 281, 273, 267, 260, 248, 240, 236, 232, 230, 229, 229, 229, 229, 229, 229, 228, 225, 223, 222, 222, 219, 217, 214, 213, 209, 208, 207, 207, 205, 204, 204, 203, 201, 201, 201, 201, 201, 201, 200, 200, 200, 200, 200, 200, 200, 200, 200, 200, 200, 200, 200, 200, 200, 200, 200, 200, 200, 200, 200, 200, 200, 200, 200, 200, 200, 200, 200, 200, 200, 200, 200, 200, 200, 200, 200, 200, 200, 200, 200, 200, 200, 200, 200, 200, 200, 200, 200, 200, 200, 200, 200, 200, 200, 200, 200, 200, 200, 200, 200, 200, 200, 200, 200, 200, 198, 196, 196, 195, 195, 192, 192, 191, 191, 190, 190, 188, 188, 187, 186, 186, 185, 184, 183, 181, 181, 178, 177, 176, 175, 173, 173, 173, 173, 173, 173, 173, 173, 173, 173, 173, 173, 173]","[1010, 1010, 1010, 1010, 1010, 1010, 1010, 1010, 1010, 1010, 1010, 1010, 1010, 1010, 1010, 1010, 1009, 1006, 1005, 998, 995, 989, 984, 973, 967, 957, 948, 925, 910, 893, 875, 836, 822, 803, 783, 748, 725, 705, 685, 642, 628, 614, 604, 587, 579, 574, 568, 556, 551, 545, 538, 522, 514, 505, 491, 458, 437, 412, 390, 351, 334, 312, 295, 269, 254, 245, 235, 217, 208, 199, 193, 177, 169, 161, 154, 143, 138, 133, 128, 119, 115, 112, 108, 100, 98, 96, 94, 93, 93, 93, 93, 93, 93, 93, 93, 93, 95, 95, 95, 98, 100, 102, 103, 106, 106, 106, 107, 108, 109, 109, 110, 110, 111, 111, 111, 111, 111, 111, 111, 111, 111, 111, 111, 111, 111, 111, 111, 111, 111, 111, 111, 111, 111, 111, 111, 111, 111, 111, 111, 111, 111, 111, 111, 111, 111, 111, 111, 111, 111, 111, 111, 111, 111, 111, 111, 111, 111, 111, 111, 111, 111, 111, 111, 111, 111, 111, 111, 111, 111, 111, 111, 111, 111, 111, 111, 111, 111, 111, 111, 111, 111, 111, 111, 111, 109, 109, 108, 108, 106, 106, 105, 104, 104, 103, 103, 103, 102, 101, 101, 101, 100, 100, 99, 99, 97, 96, 95, 95, 93, 93, 93, 93, 93, 93, 93, 93, 93, 93, 93, 93, 93]"
"Trust","Teilnehmer A hat Ihnen 2 Punkte übermittelt.","Payback","1","undefined","18","0","6","60","1080","391","5","1","1429","0","legacy","[11, 21, 31, 41, 51, 61, 71, 81, 91, 101, 111, 121, 131, 141, 151, 161, 171, 181, 191, 201, 211, 221, 231, 241, 251, 261, 271, 281, 291, 301, 311, 321, 331, 341, 351, 361, 371, 381, 391, 401, 411, 421, 431, 441, 451, 461, 471, 481, 491, 501, 511, 521, 531, 541, 551, 561, 571, 581, 591, 601, 611, 621, 631, 641, 651, 661, 671, 681, 691, 701, 711, 721, 731, 741, 751, 761, 771, 781, 791, 801, 811, 821, 831, 841, 851, 861, 871, 881, 891, 901, 911, 921, 931, 941, 951, 961, 971, 981, 991, 1001, 1011, 1021, 1031, 1041, 1051, 1061, 1071, 1081, 1091, 1101, 1111, 1121, 1131, 1141, 1151, 1161, 1171, 1181, 1191, 1201, 1211, 1221, 1231, 1241, 1251, 1261, 1271, 1281, 1291, 1301, 1311, 1321, 1331, 1341, 1351, 1361, 1371, 1381, 1391, 1401, 1411, 1421]","1337","1920","[960, 960, 960, 960, 960, 960, 960, 960, 960, 960, 960, 960, 960, 960, 960, 960, 960, 960, 960, 960, 960, 960, 960, 960, 960, 960, 960, 960, 960, 960, 961, 961, 962, 962, 963, 963, 963, 963, 960, 959, 956, 953, 941, 931, 921, 906, 869, 847, 825, 804, 753, 725, 694, 672, 617, 585, 553, 530, 490, 476, 465, 458, 445, 442, 438, 433, 424, 422, 418, 417, 413, 412, 411, 409, 406, 402, 399, 394, 383, 379, 376, 371, 361, 358, 350, 345, 333, 328, 324, 320, 312, 308, 303, 298, 291, 287, 282, 279, 273, 271, 269, 269, 267, 267, 267, 267, 267, 267, 267, 265, 262, 260, 257, 253, 244, 238, 234, 227, 219, 214, 209, 206, 199, 197, 192, 192, 190, 188, 188, 188, 188, 188, 188, 188, 188, 188, 188, 188, 188, 188, 188, 188]","[1010, 1010, 1010, 1010, 1010, 1010, 1010, 1010, 1010, 1010, 1010, 1010, 1010, 1010, 1010, 1010, 1010, 1010, 1010, 1010, 1010, 1010, 1010, 1010, 1009, 1009, 1008, 1007, 1007, 1006, 1003, 1001, 998, 991, 979, 972, 965, 955, 938, 929, 919, 909, 885, 866, 847, 823, 765, 734, 698, 670, 604, 573, 533, 502, 443, 415, 389, 371, 341, 330, 321, 317, 305, 300, 296, 292, 287, 286, 283, 283, 280, 279, 279, 277, 274, 272, 269, 266, 258, 256, 253, 249, 243, 239, 234, 230, 217, 210, 202, 195, 181, 175, 169, 161, 151, 148, 144, 140, 136, 135, 134, 133, 133, 133, 133, 133, 133, 133, 133, 133, 131, 130, 129, 126, 123, 120, 119, 114, 111, 109, 107, 105, 102, 101, 98, 98, 97, 95, 95, 95, 95, 95, 95, 95, 95, 95, 95, 95, 95, 95, 95, 95]"
"Trust","Teilnehmer A hat Ihnen 2 Punkte übermittelt.","Payback","0","undefined","19","0","6","60","1080","341","10","2","1646","0","legacy","[11, 21, 31, 41, 51, 61, 71, 81, 91, 101, 111, 121, 131, 141, 151, 161, 171, 181, 191, 201, 211, 221, 231, 241, 251, 261, 271, 281, 291, 301, 311, 321, 331, 341, 351, 361, 371, 381, 391, 401, 411, 421, 431, 441, 451, 461, 471, 481, 491, 501, 511, 521, 531, 541, 551, 561, 571, 581, 591, 601, 611, 621, 631, 641, 651, 661, 671, 681, 691, 701, 711, 721, 731, 741, 751, 761, 771, 781, 791, 801, 811, 821, 831, 841, 851, 861, 871, 881, 891, 901, 911, 921, 931, 941, 951, 961, 971, 981, 991, 1001, 1011, 1021, 1031, 1041, 1051, 1061, 1071, 1081, 1091, 1101, 1111, 1121, 1131, 1141, 1151, 1161, 1171, 1181, 1191, 1201, 1211, 1221, 1231, 1241, 1251, 1261, 1271, 1281, 1291, 1301, 1311, 1321, 1331, 1341, 1351, 1361, 1371, 1381, 1391, 1401, 1411, 1421, 1431, 1441, 1451, 1461, 1471, 1481, 1491, 1501, 1511, 1521, 1531, 1541, 1551, 1561, 1571, 1581, 1591, 1601, 1611, 1621, 1631, 1641]","1337","1920","[960, 960, 960, 960, 960, 960, 960, 960, 960, 960, 960, 960, 960, 960, 960, 961, 963, 964, 966, 966, 967, 967, 968, 968, 969, 969, 972, 974, 977, 979, 987, 994, 1003, 1016, 1053, 1075, 1099, 1123, 1175, 1200, 1218, 1243, 1286, 1306, 1320, 1336, 1356, 1365, 1370, 1376, 1383, 1386, 1387, 1390, 1391, 1393, 1394, 1394, 1395, 1397, 1399, 1402, 1405, 1408, 1410, 1413, 1416, 1418, 1420, 1421, 1422, 1423, 1424, 1425, 1427, 1428, 1431, 1431, 1436, 1436, 1438, 1439, 1442, 1443, 1443, 1445, 1449, 1450, 1453, 1457, 1463, 1469, 1475, 1481, 1494, 1501, 1505, 1510, 1517, 1522, 1527, 1529, 1534, 1536, 1537, 1538, 1542, 1546, 1549, 1551, 1556, 1559, 1561, 1565, 1576, 1581, 1590, 1596, 1608, 1611, 1615, 1616, 1621, 1623, 1625, 1627, 1633, 1636, 1641, 1646, 1659, 1667, 1675, 1680, 1692, 1697, 1700, 1705, 1709, 1712, 1712, 1715, 1716, 1717, 1718, 1719, 1720, 1722, 1722, 1723, 1723, 1724, 1724, 1724, 1724, 1724, 1724, 1725, 1725, 1725, 1725, 1725, 1725, 1725]","[1010, 1010, 1010, 1010, 1010, 1010, 1010, 1010, 1010, 1010, 1010, 1010, 1010, 1010, 1010, 1009, 1006, 1004, 1000, 998, 996, 996, 995, 995, 993, 993, 988, 984, 980, 976, 965, 955, 943, 925, 884, 860, 836, 812, 759, 730, 707, 680, 623, 598, 578, 555, 527, 516, 511, 505, 497, 494, 492, 488, 484, 480, 478, 477, 473, 471, 468, 464, 460, 457, 454, 452, 448, 447, 445, 445, 443, 441, 441, 440, 438, 438, 436, 436, 433, 432, 431, 430, 427, 426, 424, 422, 418, 416, 412, 407, 399, 390, 383, 374, 357, 348, 344, 336, 323, 315, 306, 302, 290, 285, 283, 280, 273, 268, 263, 261, 254, 249, 244, 239, 227, 221, 214, 209, 197, 195, 191, 190, 185, 183, 181, 179, 173, 170, 166, 162, 151, 144, 136, 130, 117, 111, 106, 100, 95, 92, 91, 87, 86, 85, 83, 82, 80, 79, 78, 78, 77, 77, 77, 77, 77, 77, 77, 76, 76, 76, 76, 76, 76, 76]"
"Trust","Teilnehmer A hat Ihnen 2 Punkte übermittelt.","Payback","1","undefined","20","0","6","60","1080","231","5","1","1221","0","legacy","[11, 21, 31, 41, 51, 61, 71, 81, 91, 101, 111, 121, 131, 141, 151, 161, 171, 181, 191, 201, 211, 221, 231, 241, 251, 261, 271, 281, 291, 301, 311, 321, 331, 341, 351, 361, 371, 381, 391, 401, 411, 421, 431, 441, 451, 461, 471, 481, 491, 501, 511, 521, 531, 541, 551, 561, 571, 581, 591, 601, 611, 621, 631, 641, 651, 661, 671, 681, 691, 701, 711, 721, 731, 741, 751, 761, 771, 781, 791, 801, 811, 821, 831, 841, 851, 861, 871, 881, 891, 901, 911, 921, 931, 941, 951, 961, 971, 981, 991, 1001, 1011, 1021, 1031, 1041, 1051, 1061, 1071, 1081, 1091, 1101, 1111, 1121, 1131, 1141, 1151, 1161, 1171, 1181, 1191, 1201, 1211, 1221]","1337","1920","[960, 960, 960, 960, 960, 960, 960, 960, 961, 963, 963, 963, 963, 963, 963, 963, 963, 963, 963, 960, 957, 952, 947, 944, 941, 939, 928, 921, 913, 903, 874, 851, 830, 809, 758, 726, 697, 677, 640, 625, 612, 600, 576, 567, 558, 549, 528, 516, 505, 496, 478, 472, 466, 460, 450, 446, 441, 436, 428, 428, 425, 422, 410, 401, 392, 381, 359, 344, 326, 303, 228, 191, 165, 134, 98, 86, 74, 61, 39, 31, 25, 21, 20, 19, 19, 19, 19, 19, 19, 19, 19, 19, 19, 19, 19, 19, 20, 22, 24, 27, 29, 32, 43, 52, 56, 63, 75, 77, 82, 85, 88, 88, 88, 88, 88, 88, 88, 88, 88, 88, 88, 88]","[1010, 1010, 1010, 1010, 1010, 1010, 1010, 1009, 1006, 1002, 996, 996, 996, 996, 995, 994, 993, 989, 984, 978, 970, 959, 938, 926, 913, 901, 866, 843, 818, 794, 736, 700, 671, 643, 583, 555, 527, 506, 462, 444, 427, 412, 385, 368, 355, 341, 305, 288, 272, 260, 239, 230, 220, 212, 200, 194, 189, 186, 181, 180, 178, 176, 168, 163, 158, 153, 141, 132, 124, 114, 94, 82, 70, 60, 43, 37, 33, 26, 17, 13, 9, 8, 6, 6, 6, 6, 6, 6, 6, 6, 6, 6, 8, 9, 12, 13, 15, 19, 25, 29, 33, 37, 48, 55, 59, 64, 73, 75, 76, 78, 78, 78, 78, 78, 78, 78, 78, 78, 78, 78, 78, 78]"
"Promise","Wie oft werden Sie die Hälfte zurückgeben?","Promise","0","undefined","20","0","7","60","1080","241","5","2","1032","0","legacy","[11, 21, 31, 41, 51, 61, 71, 81, 91, 101, 111, 121, 131, 141, 151, 161, 171, 181, 191, 201, 211, 221, 231, 241, 251, 261, 271, 281, 291, 301, 311, 321, 331, 341, 351, 361, 371, 381, 391, 401, 411, 421, 431, 441, 451, 461, 471, 481, 491, 501, 511, 521, 531, 541, 551, 561, 571, 581, 591, 601, 611, 621, 631, 641, 651, 661, 671, 681, 691, 701, 711, 721, 731, 741, 751, 761, 771, 781, 791, 801, 811, 821, 831, 841, 851, 861, 871, 881, 891, 901, 911, 921, 931, 941, 951, 961, 971, 981, 991, 1001, 1011, 1021, 1031]","1337","1920","[960, 960, 960, 960, 960, 960, 960, 960, 960, 960, 961, 961, 963, 964, 964, 964, 964, 964, 967, 972, 978, 989, 1013, 1087, 1142, 1192, 1244, 1351, 1404, 1456, 1501, 1569, 1592, 1607, 1626, 1653, 1668, 1677, 1685, 1699, 1707, 1715, 1726, 1744, 1755, 1769, 1776, 1793, 1798, 1803, 1807, 1811, 1812, 1812, 1813, 1813, 1813, 1813, 1813, 1813, 1813, 1813, 1813, 1813, 1813, 1813, 1813, 1813, 1813, 1813, 1813, 1813, 1813, 1813, 1811, 1811, 1811, 1811, 1811, 1811, 1811, 1811, 1811, 1811, 1810, 1810, 1810, 1809, 1809, 1809, 1809, 1809, 1809, 1809, 1809, 1809, 1809, 1809, 1808, 1808, 1808, 1808, 1808]","[1010, 1010, 1010, 1010, 1010, 1010, 1010, 1010, 1010, 1008, 1007, 1003, 1000, 999, 999, 998, 997, 997, 994, 989, 984, 976, 962, 918, 884, 851, 813, 750, 717, 683, 651, 598, 578, 564, 545, 512, 495, 481, 467, 438, 419, 404, 389, 352, 331, 309, 294, 260, 247, 237, 228, 215, 213, 211, 210, 210, 210, 210, 210, 210, 210, 210, 210, 210, 208, 208, 207, 205, 204, 203, 201, 194, 192, 188, 181, 167, 159, 151, 142, 127, 119, 113, 108, 99, 95, 93, 91, 86, 85, 84, 83, 83, 83, 83, 83, 83, 83, 83, 82, 82, 82, 82, 82]"
"Trust","Teilnehmer A hat Ihnen 2 Punkte übermittelt.","Payback","1","undefined","21","0","7","60","1080","331","5","1","1679","0","legacy","[11, 21, 31, 41, 51, 61, 71, 81, 91, 101, 111, 121, 131, 141, 151, 161, 171, 181, 191, 201, 211, 221, 231, 241, 251, 261, 271, 281, 291, 301, 311, 321, 331, 341, 351, 361, 371, 381, 391, 401, 411, 421, 431, 441, 451, 461, 471, 481, 491, 501, 511, 521, 531, 541, 551, 561, 571, 581, 591, 601, 611, 621, 631, 641, 651, 661, 671, 681, 691, 701, 711, 721, 731, 741, 751, 761, 771, 781, 791, 801, 811, 821, 831, 841, 851, 861, 871, 881, 891, 901, 911, 921, 931, 941, 951, 961, 971, 981, 991, 1001, 1011, 1021, 1031, 1041, 1051, 1061, 1071, 1081, 1091, 1101, 1111, 1121, 1131, 1141, 1151, 1161, 1171, 1181, 1191, 1201, 1211, 1221, 1231, 1241, 1251, 1261, 1271, 1281, 1291, 1301, 1311, 1321, 1331, 1341, 1351, 1361, 1371, 1381, 1391, 1401, 1411, 1421, 1431, 1441, 1451, 1461, 1471, 1481, 1491, 1501, 1511, 1521, 1531, 1541, 1551, 1561, 1571, 1581, 1591, 1601, 1611, 1621, 1631, 1641, 1651, 1661, 1671]","1337","1920","[960, 960, 960, 960, 960, 960, 960, 960, 960, 960, 960, 960, 960, 960, 960, 960, 960, 960, 960, 960, 960, 960, 960, 960, 959, 958, 956, 951, 948, 946, 943, 936, 933, 931, 927, 920, 917, 913, 910, 903, 900, 895, 890, 880, 875, 872, 867, 858, 854, 851, 846, 837, 832, 826, 823, 812, 807, 800, 792, 776, 768, 760, 752, 729, 719, 705, 692, 670, 663, 654, 647, 627, 617, 609, 602, 585, 578, 571, 566, 556, 551, 547, 541, 533, 526, 520, 514, 502, 497, 492, 485, 475, 467, 459, 453, 439, 430, 425, 419, 409, 405, 398, 394, 380, 374, 368, 362, 352, 347, 342, 339, 333, 330, 329, 328, 325, 324, 323, 323, 322, 322, 321, 319, 317, 314, 312, 310, 303, 300, 296, 295, 290, 289, 287, 285, 283, 281, 280, 278, 275, 272, 271, 268, 267, 266, 265, 265, 265, 265, 265, 265, 265, 265, 265, 265, 265, 265, 265, 265, 265, 265, 265, 265, 265, 265, 265, 265]","[1010, 1010, 1010, 1010, 1010, 1010, 1010, 1010, 1010, 1010, 1010, 1010, 1010, 1010, 1009, 1006, 1005, 1003, 1002, 999, 999, 999, 998, 994, 992, 988, 983, 973, 967, 961, 955, 940, 933, 927, 921, 909, 903, 896, 890, 878, 873, 863, 856, 836, 827, 821, 812, 797, 791, 781, 773, 754, 743, 730, 720, 696, 686, 673, 663, 636, 620, 606, 595, 564, 550, 530, 513, 481, 470, 458, 445, 418, 402, 392, 382, 363, 354, 346, 339, 326, 320, 315, 309, 298, 290, 285, 278, 266, 259, 253, 247, 233, 225, 219, 214, 204, 199, 195, 192, 183, 180, 176, 173, 164, 160, 155, 151, 145, 142, 140, 138, 134, 133, 132, 131, 130, 129, 129, 128, 128, 128, 127, 127, 125, 124, 122, 121, 117, 116, 113, 112, 109, 108, 108, 107, 106, 105, 104, 103, 101, 101, 100, 98, 97, 97, 96, 96, 96, 96, 96, 96, 96, 96, 96, 96, 96, 96, 96, 96, 96, 96, 96, 96, 96, 96, 96, 96]"
"Trust","Teilnehmer A hat Ihnen 2 Punkte übermittelt.","Payback","0","undefined","22","0","7","60","1080","351","10","2","1422","0","legacy","[11, 21, 31, 41, 51, 61, 71, 81, 91, 101, 111, 121, 131, 141, 151, 161, 171, 181, 191, 201, 211, 221, 231, 241, 251, 261, 271, 281, 291, 301, 311, 321, 331, 341, 351, 361, 371, 381, 391, 401, 411, 421, 431, 441, 451, 461, 471, 481, 491, 501, 511, 521, 531, 541, 551, 561, 571, 581, 591, 601, 611, 621, 631, 641, 651, 661, 671, 681, 691, 701, 711, 721, 731, 741, 751, 761, 771, 781, 791, 801, 811, 821, 831, 841, 851, 861, 871, 881, 891, 901, 911, 921, 931, 941, 951, 961, 971, 981, 991, 1001, 1011, 1021, 1031, 1041, 1051, 1061, 1071, 1081, 1091, 1101, 1111, 1121, 1131, 1141, 1151, 1161, 1171, 1181, 1191, 1201, 1211, 1221, 1231, 1241, 1251, 1261, 1271, 1281, 1291, 1301, 1311, 1321, 1331, 1341, 1351, 1361, 1371, 1381, 1391, 1401, 1411, 1421]","1337","1920","[960, 960, 960, 960, 960, 960, 960, 960, 960, 960, 960, 960, 960, 960, 960, 960, 960, 960, 961, 962, 963, 963, 964, 964, 965, 967, 970, 973, 976, 977, 983, 986, 991, 993, 998, 1003, 1007, 1011, 1022, 1029, 1038, 1049, 1068, 1078, 1085, 1092, 1109, 1119, 1127, 1136, 1159, 1170, 1184, 1199, 1235, 1257, 1277, 1295, 1326, 1341, 1353, 1364, 1383, 1391, 1397, 1404, 1418, 1425, 1433, 1441, 1452, 1459, 1465, 1471, 1484, 1490, 1498, 1507, 1524, 1534, 1541, 1550, 1568, 1577, 1586, 1592, 1603, 1611, 1617, 1622, 1633, 1638, 1642, 1646, 1652, 1655, 1660, 1665, 1674, 1679, 1683, 1686, 1695, 1696, 1703, 1708, 1718, 1723, 1726, 1733, 1742, 1745, 1748, 1751, 1757, 1761, 1762, 1765, 1770, 1772, 1775, 1778, 1783, 1784, 1786, 1786, 1787, 1787, 1787, 1787, 1787, 1787, 1787, 1787, 1787, 1787, 1787, 1787, 1787, 1787, 1787, 1787]","[1010, 1010, 1010, 1010, 1010, 1010, 1010, 1010, 1010, 1010, 1010, 1010, 1010, 1010, 1010, 1010, 1009, 1009, 1005, 1004, 1003, 1002, 1001, 999, 997, 993, 988, 983, 981, 976, 966, 959, 952, 946, 926, 912, 900, 886, 855, 837, 816, 793, 758, 741, 730, 717, 692, 679, 667, 655, 626, 616, 603, 590, 566, 551, 536, 521, 499, 487, 478, 468, 451, 442, 435, 427, 413, 408, 400, 392, 382, 376, 369, 363, 350, 344, 336, 328, 316, 307, 301, 295, 283, 276, 270, 264, 254, 248, 241, 236, 224, 219, 214, 209, 200, 197, 192, 187, 178, 173, 169, 167, 159, 158, 151, 146, 134, 128, 123, 117, 107, 102, 99, 95, 88, 84, 82, 78, 72, 70, 68, 64, 58, 56, 54, 54, 53, 53, 53, 53, 53, 53, 53, 53, 53, 53, 53, 53, 53, 53, 53, 53]"
"Trust","Teilnehmer A hat Ihnen 2 Punkte übermittelt.","Payback","0","undefined","23","0","7","60","1080","261","10","2","1436","0","legacy","[11, 21, 31, 41, 51, 61, 71, 81, 91, 101, 111, 121, 131, 141, 151, 161, 171, 181, 191, 201, 211, 221, 231, 241, 251, 261, 271, 281, 291, 301, 311, 321, 331, 341, 351, 361, 371, 381, 391, 401, 411, 421, 431, 441, 451, 461, 471, 481, 491, 501, 511, 521, 531, 541, 551, 561, 571, 581, 591, 601, 611, 621, 631, 641, 651, 661, 671, 681, 691, 701, 711, 721, 731, 741, 751, 761, 771, 781, 791, 801, 811, 821, 831, 841, 851, 861, 871, 881, 891, 901, 911, 921, 931, 941, 951, 961, 971, 981, 991, 1001, 1011, 1021, 1031, 1041, 1051, 1061, 1071, 1081, 1091, 1101, 1111, 1121, 1131, 1141, 1151, 1161, 1171, 1181, 1191, 1201, 1211, 1221, 1231, 1241, 1251, 1261, 1271, 1281, 1291, 1301, 1311, 1321, 1331, 1341, 1351, 1361, 1371, 1381, 1391, 1401, 1411, 1421, 1431]","1337","1920","[960, 960, 960, 960, 960, 960, 960, 960, 960, 960, 960, 960, 960, 960, 960, 960, 960, 967, 970, 974, 977, 985, 990, 994, 1003, 1022, 1034, 1053, 1069, 1112, 1133, 1152, 1172, 1213, 1235, 1250, 1273, 1310, 1333, 1353, 1373, 1437, 1476, 1504, 1529, 1577, 1591, 1605, 1619, 1642, 1655, 1666, 1678, 1705, 1718, 1730, 1739, 1755, 1763, 1771, 1779, 1790, 1795, 1800, 1806, 1817, 1822, 1826, 1830, 1838, 1842, 1845, 1846, 1852, 1854, 1856, 1859, 1862, 1865, 1867, 1868, 1872, 1873, 1873, 1876, 1877, 1880, 1881, 1882, 1885, 1886, 1887, 1889, 1891, 1892, 1893, 1894, 1895, 1896, 1897, 1898, 1900, 1900, 1901, 1901, 1902, 1902, 1902, 1902, 1902, 1902, 1902, 1902, 1902, 1902, 1901, 1901, 1901, 1901, 1901, 1901, 1901, 1901, 1901, 1901, 1901, 1901, 1901, 1901, 1901, 1901, 1901, 1901, 1901, 1901, 1901, 1901, 1901, 1901, 1901, 1901, 1901, 1901]","[1010, 1010, 1010, 1010, 1010, 1010, 1010, 1010, 1010, 1010, 1010, 1010, 1010, 1010, 1010, 1010, 1008, 999, 995, 988, 984, 973, 966, 960, 950, 929, 915, 896, 881, 838, 817, 798, 779, 748, 731, 721, 703, 675, 660, 645, 627, 584, 560, 537, 522, 490, 479, 469, 460, 441, 431, 422, 411, 387, 376, 365, 357, 339, 330, 321, 311, 294, 286, 279, 271, 256, 248, 243, 237, 228, 223, 217, 215, 206, 201, 198, 193, 186, 183, 179, 176, 171, 167, 166, 161, 156, 151, 149, 147, 140, 138, 135, 131, 125, 122, 119, 116, 111, 106, 102, 99, 92, 88, 85, 81, 74, 72, 69, 67, 62, 59, 58, 56, 54, 52, 51, 51, 51, 51, 51, 51, 51, 51, 51, 51, 51, 51, 51, 51, 51, 51, 51, 51, 51, 51, 51, 51, 51, 51, 51, 51, 51, 51]"
CHF,TotCHF,final_payoff,sum
"17.5","37.5","[10, 5, 10, 10]","35"
