Condition,PromiseStage,Stage,accuracy,avg_rt,count_decision_sequence,count_loop1,count_trial_sequence,font_size,height,init_time,payoff,response,rt,subject_nr,synth_backend,tTrajectory,time_experiment,width,xTrajectory,yTrajectory
"Promise","Wie oft werden Sie die Hälfte zurückgeben?","Promise","1","undefined","NA","0","0","60","1080","301","NA","1","1359","0","legacy","[11, 21, 31, 41, 51, 61, 71, 81, 91, 101, 111, 121, 131, 141, 151, 161, 171, 181, 191, 201, 211, 221, 231, 241, 251, 261, 271, 281, 291, 301, 311, 321, 331, 341, 351, 361, 371, 381, 391, 401, 411, 421, 431, 441, 451, 461, 471, 481, 491, 501, 511, 521, 531, 541, 551, 561, 571, 581, 591, 601, 611, 621, 631, 641, 651, 661, 671, 681, 691, 701, 711, 721, 731, 741, 751, 761, 771, 781, 791, 801, 811, 821, 831, 841, 851, 861, 871, 881, 891, 901, 911, 921, 931, 941, 951, 961, 971, 981, 991, 1001, 1011, 1021, 1031, 1041, 1051, 1061, 1071, 1081, 1091, 1101, 1111, 1121, 1131, 1141, 1151, 1161, 1171, 1181, 1191, 1201, 1211, 1221, 1231, 1241, 1251, 1261, 1271, 1281, 1291, 1301, 1311, 1321, 1331, 1341, 1351]","1265","1920","[960, 960, 960, 960, 960, 960, 960, 960, 960, 960, 960, 960, 960, 960, 960, 960, 960, 960, 960, 960, 960, 960, 954, 942, 935, 930, 921, 909, 908, 906, 904, 902, 900, 899, 898, 895, 894, 893, 891, 889, 884, 882, 879, 873, 869, 865, 859, 840, 835, 828, 822, 812, 810, 806, 801, 794, 789, 784, 779, 773, 770, 767, 763, 753, 750, 742, 734, 715, 700, 686, 682, 682, 677, 664, 651, 620, 603, 588, 571, 535, 512, 486, 469, 427, 412, 400, 387, 366, 355, 346, 337, 320, 312, 302, 297, 284, 279, 271, 264, 252, 247, 245, 242, 241, 240, 239, 238, 235, 234, 232, 231, 228, 227, 226, 226, 226, 225, 225, 225, 225, 225, 225, 225, 225, 225, 225, 225, 225, 225, 225, 225, 225, 225, 225, 225]","[1010, 1010, 1010, 1010, 1010, 1010, 1010, 1010, 1010, 1010, 1010, 1010, 1010, 1010, 1010, 1010, 1010, 1010, 1010, 1010, 1010, 1005, 999, 979, 971, 964, 955, 942, 940, 937, 935, 932, 929, 928, 926, 921, 919, 914, 910, 899, 889, 882, 872, 851, 839, 825, 809, 772, 762, 750, 739, 719, 711, 703, 693, 674, 663, 653, 643, 626, 618, 612, 605, 586, 578, 567, 557, 533, 515, 500, 494, 494, 487, 468, 450, 408, 383, 365, 347, 315, 295, 275, 262, 232, 220, 210, 199, 179, 168, 159, 150, 138, 132, 126, 122, 115, 111, 108, 103, 96, 93, 92, 91, 90, 89, 88, 88, 86, 85, 84, 83, 81, 81, 81, 81, 81, 80, 80, 80, 80, 80, 80, 80, 80, 80, 80, 80, 80, 80, 80, 80, 80, 80, 80, 80]"
Cond,DecisionB,Stage,accuracy,avg_rt,count_decision_sequence,count_loop1,count_trial_sequence,font_size,height,init_time,payoff,response,rt,subject_nr,synth_backend,tTrajectory,time_experiment,width,xTrajectory,yTrajectory
"NoTrust","Teilnehmer A hat Ihnen keine 2 Punkte übermittelt.","Payback","1","undefined","0","0","0","60","1080","301","0","1","1359","0","legacy","[11, 21, 31, 41, 51, 61, 71, 81, 91, 101, 111, 121, 131, 141, 151, 161, 171, 181, 191, 201, 211, 221, 231, 241, 251, 261, 271, 281, 291, 301, 311, 321, 331, 341, 351, 361, 371, 381, 391, 401, 411, 421, 431, 441, 451, 461, 471, 481, 491, 501, 511, 521, 531, 541, 551, 561, 571, 581, 591, 601, 611, 621, 631, 641, 651, 661, 671, 681, 691, 701, 711, 721, 731, 741, 751, 761, 771, 781, 791, 801, 811, 821, 831, 841, 851, 861, 871, 881, 891, 901, 911, 921, 931, 941, 951, 961, 971, 981, 991, 1001, 1011, 1021, 1031, 1041, 1051, 1061, 1071, 1081, 1091, 1101, 1111, 1121, 1131, 1141, 1151, 1161, 1171, 1181, 1191, 1201, 1211, 1221, 1231, 1241, 1251, 1261, 1271, 1281, 1291, 1301, 1311, 1321, 1331, 1341, 1351]","1265","1920","[960, 960, 960, 960, 960, 960, 960, 960, 960, 960, 960, 960, 960, 960, 960, 960, 960, 960, 960, 960, 960, 960, 954, 942, 935, 930, 921, 909, 908, 906, 904, 902, 900, 899, 898, 895, 894, 893, 891, 889, 884, 882, 879, 873, 869, 865, 859, 840, 835, 828, 822, 812, 810, 806, 801, 794, 789, 784, 779, 773, 770, 767, 763, 753, 750, 742, 734, 715, 700, 686, 682, 682, 677, 664, 651, 620, 603, 588, 571, 535, 512, 486, 469, 427, 412, 400, 387, 366, 355, 346, 337, 320, 312, 302, 297, 284, 279, 271, 264, 252, 247, 245, 242, 241, 240, 239, 238, 235, 234, 232, 231, 228, 227, 226, 226, 226, 225, 225, 225, 225, 225, 225, 225, 225, 225, 225, 225, 225, 225, 225, 225, 225, 225, 225, 225]","[1010, 1010, 1010, 1010, 1010, 1010, 1010, 1010, 1010, 1010, 1010, 1010, 1010, 1010, 1010, 1010, 1010, 1010, 1010, 1010, 1010, 1005, 999, 979, 971, 964, 955, 942, 940, 937, 935, 932, 929, 928, 926, 921, 919, 914, 910, 899, 889, 882, 872, 851, 839, 825, 809, 772, 762, 750, 739, 719, 711, 703, 693, 674, 663, 653, 643, 626, 618, 612, 605, 586, 578, 567, 557, 533, 515, 500, 494, 494, 487, 468, 450, 408, 383, 365, 347, 315, 295, 275, 262, 232, 220, 210, 199, 179, 168, 159, 150, 138, 132, 126, 122, 115, 111, 108, 103, 96, 93, 92, 91, 90, 89, 88, 88, 86, 85, 84, 83, 81, 81, 81, 81, 81, 80, 80, 80, 80, 80, 80, 80, 80, 80, 80, 80, 80, 80, 80, 80, 80, 80, 80, 80]"
"Trust","Teilnehmer A hat Ihnen 2 Punkte übermittelt.","Payback","1","undefined","1","0","0","60","1080","251","5","1","1587","0","legacy","[11, 21, 31, 41, 51, 61, 71, 81, 91, 101, 111, 121, 131, 141, 151, 161, 171, 181, 191, 201, 211, 221, 231, 241, 251, 261, 271, 281, 291, 301, 311, 321, 331, 341, 351, 361, 371, 381, 391, 401, 411, 421, 431, 441, 451, 461, 471, 481, 491, 501, 511, 521, 531, 541, 551, 561, 571, 581, 591, 601, 611, 621, 631, 641, 651, 661, 671, 681, 691, 701, 711, 721, 731, 741, 751, 761, 771, 781, 791, 801, 811, 821, 831, 841, 851, 861, 871, 881, 891, 901, 911, 921, 931, 941, 951, 961, 971, 981, 991, 1001, 1011, 1021, 1031, 1041, 1051, 1061, 1071, 1081, 1091, 1101, 1111, 1121, 1131, 1141, 1151, 1161, 1171, 1181, 1191, 1201, 1211, 1221, 1231, 1241, 1251, 1261, 1271, 1281, 1291, 1301, 1311, 1321, 1331, 1341, 1351, 1361, 1371, 1381, 1391, 1401, 1411, 1421, 1431, 1441, 1451, 1461, 1471, 1481, 1491, 1501, 1511, 1521, 1531, 1541, 1551, 1561, 1571, 1581]","1265","1920","[960, 960, 960, 960, 960, 960, 960, 960, 960, 960, 960, 960, 960, 960, 960, 960, 960, 960, 960, 960, 959, 954, 952, 949, 945, 937, 932, 930, 926, 919, 913, 907, 901, 889, 883, 873, 864, 845, 833, 825, 815, 796, 788, 778, 771, 752, 743, 730, 712, 674, 652, 631, 602, 552, 531, 513, 487, 461, 435, 404, 387, 336, 316, 300, 288, 261, 251, 235, 222, 201, 190, 180, 172, 157, 150, 143, 137, 125, 120, 115, 115, 115, 115, 115, 115, 115, 115, 115, 115, 115, 115, 115, 115, 115, 115, 115, 115, 114, 114, 114, 114, 114, 114, 114, 114, 114, 114, 114, 114, 114, 114, 114, 114, 114, 114, 114, 114, 114, 114, 114, 114, 114, 114, 114, 114, 114, 114, 114, 114, 114, 114, 114, 114, 114, 114, 114, 114, 114, 114, 114, 114, 114, 114, 114, 114, 114, 114, 114, 114, 114, 114, 114, 114, 114, 114, 114, 114, 114]","[1010, 1010, 1010, 1010, 1010, 1010, 1010, 1010, 1010, 1010, 1010, 1010, 1010, 1010, 1010, 1007, 1002, 988, 984, 978, 974, 962, 955, 947, 939, 920, 909, 899, 888, 864, 851, 837, 822, 794, 779, 761, 742, 700, 684, 665, 651, 624, 612, 599, 585, 555, 539, 522, 499, 455, 431, 410, 384, 342, 320, 304, 283, 262, 243, 220, 207, 169, 156, 144, 136, 118, 110, 100, 92, 80, 72, 66, 63, 54, 49, 46, 43, 35, 33, 30, 30, 30, 30, 30, 30, 30, 30, 30, 30, 30, 30, 30, 30, 30, 30, 30, 30, 31, 32, 33, 35, 37, 37, 37, 37, 37, 37, 37, 37, 37, 37, 37, 37, 37, 37, 37, 37, 37, 37, 37, 37, 37, 37, 37, 37, 37, 37, 37, 37, 37, 37, 37, 37, 37, 37, 37, 37, 37, 37, 37, 37, 37, 37, 37, 37, 37, 37, 37, 37, 37, 37, 37, 37, 37, 37, 37, 37, 37]"
"Trust","Teilnehmer A hat Ihnen 2 Punkte übermittelt.","Payback","1","undefined","2","0","0","60","1080","191","5","1","1037","0","legacy","[11, 21, 31, 41, 51, 61, 71, 81, 91, 101, 111, 121, 131, 141, 151, 161, 171, 181, 191, 201, 211, 221, 231, 241, 251, 261, 271, 281, 291, 301, 311, 321, 331, 341, 351, 361, 371, 381, 391, 401, 411, 421, 431, 441, 451, 461, 471, 481, 491, 501, 511, 521, 531, 541, 551, 561, 571, 581, 591, 601, 611, 621, 631, 641, 651, 661, 671, 681, 691, 701, 711, 721, 731, 741, 751, 761, 771, 781, 791, 801, 811, 821, 831, 841, 851, 861, 871, 881, 891, 901, 911, 921, 931, 941, 951, 961, 971, 981, 991, 1001, 1011, 1021, 1031]","1265","1920","[960, 960, 960, 960, 960, 960, 960, 960, 960, 960, 957, 955, 953, 953, 952, 949, 944, 938, 924, 918, 913, 904, 889, 879, 868, 856, 831, 817, 804, 796, 778, 769, 760, 749, 720, 706, 689, 675, 641, 629, 619, 607, 586, 575, 564, 552, 525, 513, 501, 483, 445, 423, 395, 364, 359, 327, 299, 274, 234, 220, 211, 204, 191, 185, 178, 176, 168, 166, 166, 165, 158, 155, 152, 148, 139, 135, 132, 131, 126, 125, 125, 125, 124, 124, 124, 124, 124, 124, 124, 124, 124, 124, 124, 124, 124, 124, 124, 124, 124, 124, 124, 124, 124]","[1010, 1010, 1010, 1010, 1010, 1010, 1010, 1010, 1010, 1010, 1002, 994, 990, 990, 989, 984, 977, 967, 929, 907, 875, 836, 778, 750, 729, 707, 679, 664, 649, 640, 618, 607, 597, 587, 563, 554, 541, 531, 508, 499, 490, 482, 463, 457, 449, 442, 424, 415, 403, 390, 358, 342, 323, 301, 297, 276, 255, 238, 209, 201, 193, 187, 177, 171, 165, 164, 156, 154, 154, 152, 136, 127, 118, 106, 88, 80, 77, 73, 66, 64, 62, 62, 61, 61, 61, 61, 61, 61, 61, 61, 61, 61, 61, 61, 61, 61, 61, 61, 61, 61, 61, 61, 61]"
"Promise","Wie oft werden Sie die Hälfte zurückgeben?","Promise","1","undefined","2","0","1","60","1080","191","5","1","1070","0","legacy","[11, 21, 31, 41, 51, 61, 71, 81, 91, 101, 111, 121, 131, 141, 151, 161, 171, 181, 191, 201, 211, 221, 231, 241, 251, 261, 271, 281, 291, 301, 311, 321, 331, 341, 351, 361, 371, 381, 391, 401, 411, 421, 431, 441, 451, 461, 471, 481, 491, 501, 511, 521, 531, 541, 551, 561, 571, 581, 591, 601, 611, 621, 631, 641, 651, 661, 671, 681, 691, 701, 711, 721, 731, 741, 751, 761, 771, 781, 791, 801, 811, 821, 831, 841, 851, 861, 871, 881, 891, 901, 911, 921, 931, 941, 951, 961, 971, 981, 991, 1001, 1011, 1021, 1031, 1041, 1051, 1061]","1265","1920","[960, 960, 960, 960, 960, 960, 960, 960, 960, 960, 960, 961, 960, 958, 948, 942, 935, 927, 911, 903, 893, 877, 845, 845, 818, 791, 734, 709, 688, 673, 647, 638, 629, 622, 603, 592, 579, 563, 529, 511, 496, 480, 459, 454, 445, 434, 408, 386, 365, 347, 321, 308, 295, 286, 269, 262, 254, 242, 223, 223, 220, 212, 200, 195, 193, 189, 178, 174, 168, 167, 164, 163, 162, 161, 156, 154, 152, 152, 149, 149, 149, 149, 149, 149, 149, 149, 149, 149, 149, 149, 149, 149, 149, 149, 149, 149, 149, 149, 149, 149, 149, 149, 149, 149, 149, 149]","[1010, 1010, 1010, 1010, 1010, 1010, 1010, 1010, 1010, 1010, 1010, 1010, 1004, 1000, 983, 973, 960, 950, 928, 917, 903, 883, 838, 838, 811, 781, 723, 696, 670, 650, 622, 613, 605, 600, 590, 585, 580, 573, 559, 550, 544, 534, 522, 518, 511, 499, 469, 445, 424, 403, 373, 360, 348, 339, 317, 309, 295, 280, 252, 252, 246, 236, 218, 210, 208, 201, 182, 173, 163, 153, 134, 125, 118, 111, 97, 91, 89, 85, 81, 78, 78, 77, 75, 75, 75, 75, 75, 75, 75, 75, 75, 75, 75, 75, 75, 75, 75, 75, 75, 75, 75, 75, 75, 75, 75, 75]"
"Trust","Teilnehmer A hat Ihnen 2 Punkte übermittelt.","Payback","1","undefined","3","0","1","60","1080","161","5","1","798","0","legacy","[11, 21, 31, 41, 51, 61, 71, 81, 91, 101, 111, 121, 131, 141, 151, 161, 171, 181, 191, 201, 211, 221, 231, 241, 251, 261, 271, 281, 291, 301, 311, 321, 331, 341, 351, 361, 371, 381, 391, 401, 411, 421, 431, 441, 451, 461, 471, 481, 491, 501, 511, 521, 531, 541, 551, 561, 571, 581, 591, 601, 611, 621, 631, 641, 651, 661, 671, 681, 691, 701, 711, 721, 731, 741, 751, 761, 771, 781, 791]","1265","1920","[960, 960, 960, 960, 960, 960, 960, 960, 960, 960, 955, 950, 943, 932, 901, 885, 866, 848, 814, 808, 801, 777, 719, 691, 657, 630, 582, 559, 536, 516, 482, 468, 456, 446, 421, 406, 392, 379, 339, 318, 297, 283, 260, 251, 245, 239, 229, 225, 219, 216, 209, 206, 203, 201, 198, 195, 194, 193, 192, 191, 191, 190, 190, 190, 190, 190, 190, 190, 190, 190, 190, 190, 190, 190, 190, 190, 190, 190, 190]","[1010, 1010, 1010, 1010, 1010, 1010, 1010, 1010, 1010, 1011, 1009, 1004, 996, 984, 944, 921, 896, 873, 820, 811, 804, 773, 700, 668, 631, 594, 537, 510, 484, 461, 422, 407, 392, 377, 348, 330, 312, 299, 261, 242, 224, 212, 190, 181, 172, 164, 143, 130, 119, 105, 91, 85, 81, 77, 74, 70, 67, 66, 66, 65, 65, 65, 65, 65, 65, 65, 65, 65, 65, 65, 65, 65, 65, 65, 65, 65, 65, 65, 65]"
"Trust","Teilnehmer A hat Ihnen 2 Punkte übermittelt.","Payback","1","undefined","4","0","1","60","1080","191","5","1","749","0","legacy","[11, 21, 31, 41, 51, 61, 71, 81, 91, 101, 111, 121, 131, 141, 151, 161, 171, 181, 191, 201, 211, 221, 231, 241, 251, 261, 271, 281, 291, 301, 311, 321, 331, 341, 351, 361, 371, 381, 391, 401, 411, 421, 431, 441, 451, 461, 471, 481, 491, 501, 511, 521, 531, 541, 551, 561, 571, 581, 591, 601, 611, 621, 631, 641, 651, 661, 671, 681, 691, 701, 711, 721, 731, 741]","1265","1920","[960, 960, 960, 960, 960, 960, 960, 960, 960, 960, 960, 960, 960, 960, 952, 945, 936, 922, 891, 876, 858, 835, 809, 800, 770, 737, 655, 614, 571, 532, 457, 437, 414, 408, 381, 369, 356, 343, 320, 313, 301, 291, 272, 255, 240, 220, 187, 177, 169, 164, 158, 156, 154, 151, 145, 141, 141, 141, 137, 136, 135, 134, 133, 133, 133, 133, 133, 133, 133, 133, 133, 133, 133, 133]","[1010, 1010, 1010, 1010, 1010, 1010, 1010, 1010, 1010, 1010, 1010, 1010, 1010, 1010, 998, 986, 971, 947, 892, 865, 835, 794, 749, 737, 698, 658, 576, 533, 497, 465, 396, 373, 353, 348, 316, 303, 290, 277, 258, 250, 240, 232, 215, 202, 190, 177, 148, 140, 132, 124, 116, 111, 108, 104, 95, 90, 88, 88, 83, 81, 79, 78, 77, 77, 75, 75, 75, 75, 75, 75, 75, 75, 75, 75]"
"Trust","Teilnehmer A hat Ihnen 2 Punkte übermittelt.","Payback","1","undefined","5","0","1","60","1080","181","5","1","716","0","legacy","[11, 21, 31, 41, 51, 61, 71, 81, 91, 101, 111, 121, 131, 141, 151, 161, 171, 181, 191, 201, 211, 221, 231, 241, 251, 261, 271, 281, 291, 301, 311, 321, 331, 341, 351, 361, 371, 381, 391, 401, 411, 421, 431, 441, 451, 461, 471, 481, 491, 501, 511, 521, 531, 541, 551, 561, 571, 581, 591, 601, 611, 621, 631, 641, 651, 661, 671, 681, 691, 701, 711]","1265","1920","[960, 960, 960, 960, 960, 960, 960, 960, 960, 960, 960, 960, 957, 953, 950, 942, 932, 899, 872, 838, 806, 725, 689, 644, 604, 522, 476, 439, 405, 354, 336, 323, 306, 290, 282, 272, 265, 251, 244, 239, 233, 224, 221, 216, 212, 207, 205, 205, 205, 204, 204, 201, 201, 199, 195, 194, 191, 187, 187, 186, 186, 186, 186, 186, 186, 186, 186, 186, 186, 186, 186]","[1010, 1010, 1010, 1010, 1010, 1010, 1010, 1010, 1010, 1010, 1010, 1010, 1010, 1006, 1002, 993, 980, 934, 898, 858, 818, 724, 672, 618, 565, 469, 423, 389, 361, 314, 297, 284, 266, 246, 232, 220, 209, 188, 180, 172, 164, 153, 149, 142, 139, 131, 130, 129, 129, 128, 127, 123, 121, 110, 100, 94, 86, 74, 73, 71, 70, 67, 67, 67, 67, 67, 67, 67, 67, 67, 67]"
"Promise","Wie oft werden Sie die Hälfte zurückgeben?","Promise","1","undefined","5","0","2","60","1080","261","5","1","1096","0","legacy","[11, 21, 31, 41, 51, 61, 71, 81, 91, 101, 111, 121, 131, 141, 151, 161, 171, 181, 191, 201, 211, 221, 231, 241, 251, 261, 271, 281, 291, 301, 311, 321, 331, 341, 351, 361, 371, 381, 391, 401, 411, 421, 431, 441, 451, 461, 471, 481, 491, 501, 511, 521, 531, 541, 551, 561, 571, 581, 591, 601, 611, 621, 631, 641, 651, 661, 671, 681, 691, 701, 711, 721, 731, 741, 751, 761, 771, 781, 791, 801, 811, 821, 831, 841, 851, 861, 871, 881, 891, 901, 911, 921, 931, 941, 951, 961, 971, 981, 991, 1001, 1011, 1021, 1031, 1041, 1051, 1061, 1071, 1081, 1091]","1265","1920","[960, 960, 960, 960, 960, 960, 960, 960, 960, 960, 960, 960, 960, 960, 960, 959, 957, 954, 952, 945, 939, 930, 918, 885, 862, 833, 803, 761, 741, 722, 698, 648, 617, 583, 552, 493, 467, 449, 432, 402, 393, 385, 376, 362, 355, 350, 342, 334, 329, 326, 321, 313, 310, 307, 302, 295, 293, 292, 292, 290, 290, 290, 290, 288, 286, 285, 283, 277, 275, 269, 266, 254, 247, 242, 236, 230, 228, 228, 228, 227, 227, 227, 227, 227, 227, 227, 227, 227, 227, 227, 227, 227, 227, 227, 227, 227, 227, 227, 227, 227, 227, 227, 227, 227, 227, 227, 227, 227, 227]","[1010, 1010, 1010, 1010, 1010, 1010, 1010, 1010, 1010, 1010, 1010, 1010, 1010, 1010, 1010, 1008, 1008, 1008, 1006, 1004, 999, 995, 989, 968, 950, 925, 898, 850, 827, 799, 768, 678, 628, 573, 521, 430, 394, 364, 339, 294, 280, 262, 248, 225, 215, 205, 195, 180, 171, 165, 157, 144, 134, 127, 118, 110, 106, 105, 103, 101, 101, 101, 100, 98, 96, 95, 94, 91, 89, 86, 85, 80, 77, 75, 72, 69, 68, 68, 68, 67, 67, 67, 67, 67, 67, 67, 67, 67, 67, 67, 67, 67, 67, 67, 67, 67, 67, 67, 67, 67, 67, 67, 67, 67, 67, 67, 67, 67, 67]"
"Trust","Teilnehmer A hat Ihnen 2 Punkte übermittelt.","Payback","1","undefined","6","0","2","60","1080","151","5","1","950","0","legacy","[11, 21, 31, 41, 51, 61, 71, 81, 91, 101, 111, 121, 131, 141, 151, 161, 171, 181, 191, 201, 211, 221, 231, 241, 251, 261, 271, 281, 291, 301, 311, 321, 331, 341, 351, 361, 371, 381, 391, 401, 411, 421, 431, 441, 451, 461, 471, 481, 491, 501, 511, 521, 531, 541, 551, 561, 571, 581, 591, 601, 611, 621, 631, 641, 651, 661, 671, 681, 691, 701, 711, 721, 731, 741, 751, 761, 771, 781, 791, 801, 811, 821, 831, 841, 851, 861, 871, 881, 891, 901, 911, 921, 931, 941]","1265","1920","[960, 960, 960, 960, 960, 960, 960, 960, 960, 960, 957, 952, 948, 940, 907, 883, 859, 840, 802, 800, 800, 800, 764, 726, 688, 648, 597, 583, 568, 557, 538, 530, 524, 518, 506, 504, 498, 490, 482, 479, 476, 472, 459, 450, 441, 434, 419, 414, 409, 408, 400, 397, 390, 384, 369, 360, 351, 340, 322, 315, 307, 301, 294, 289, 283, 275, 261, 246, 224, 191, 141, 124, 115, 109, 103, 102, 102, 102, 102, 102, 102, 102, 102, 102, 102, 102, 102, 102, 102, 102, 102, 102, 102, 102]","[1010, 1010, 1010, 1010, 1010, 1010, 1010, 1010, 1010, 1007, 995, 986, 981, 971, 938, 916, 892, 873, 833, 830, 830, 830, 793, 755, 717, 677, 626, 606, 588, 569, 539, 523, 508, 493, 461, 450, 438, 425, 408, 400, 392, 384, 363, 348, 334, 318, 296, 290, 284, 281, 273, 269, 264, 259, 248, 243, 236, 228, 215, 209, 204, 198, 193, 189, 183, 179, 169, 160, 146, 128, 95, 84, 75, 68, 63, 62, 62, 62, 62, 62, 62, 62, 62, 62, 62, 62, 62, 62, 62, 62, 62, 62, 62, 62]"
"Trust","Teilnehmer A hat Ihnen 2 Punkte übermittelt.","Payback","1","undefined","7","0","2","60","1080","241","5","1","1085","0","legacy","[11, 21, 31, 41, 51, 61, 71, 81, 91, 101, 111, 121, 131, 141, 151, 161, 171, 181, 191, 201, 211, 221, 231, 241, 251, 261, 271, 281, 291, 301, 311, 321, 331, 341, 351, 361, 371, 381, 391, 401, 411, 421, 431, 441, 451, 461, 471, 481, 491, 501, 511, 521, 531, 541, 551, 561, 571, 581, 591, 601, 611, 621, 631, 641, 651, 661, 671, 681, 691, 701, 711, 721, 731, 741, 751, 761, 771, 781, 791, 801, 811, 821, 831, 841, 851, 861, 871, 881, 891, 901, 911, 921, 931, 941, 951, 961, 971, 981, 991, 1001, 1011, 1021, 1031, 1041, 1051, 1061, 1071, 1081]","1265","1920","[960, 960, 960, 960, 960, 960, 960, 960, 960, 960, 960, 960, 960, 960, 960, 960, 960, 960, 960, 960, 960, 958, 929, 905, 868, 835, 744, 699, 651, 604, 505, 458, 419, 383, 322, 299, 275, 258, 224, 211, 199, 191, 171, 162, 153, 147, 139, 138, 137, 135, 133, 132, 130, 129, 126, 126, 125, 124, 123, 121, 120, 119, 119, 119, 119, 119, 119, 119, 119, 119, 119, 119, 119, 119, 119, 119, 119, 119, 119, 119, 119, 119, 119, 119, 119, 119, 119, 119, 119, 119, 122, 123, 123, 123, 124, 124, 124, 124, 124, 124, 124, 124, 124, 124, 124, 124, 124, 124]","[1010, 1010, 1010, 1010, 1010, 1010, 1010, 1010, 1010, 1010, 1010, 1010, 1010, 1010, 1010, 1010, 1010, 1010, 1010, 1010, 1010, 1005, 963, 930, 887, 840, 740, 686, 627, 574, 471, 422, 376, 336, 257, 222, 188, 167, 124, 107, 92, 83, 63, 53, 44, 37, 30, 28, 25, 24, 20, 18, 16, 13, 10, 10, 8, 7, 6, 5, 3, 2, 2, 2, 2, 2, 2, 2, 2, 2, 2, 2, 2, 2, 2, 2, 2, 2, 2, 2, 2, 2, 2, 2, 2, 2, 2, 7, 11, 17, 24, 26, 28, 29, 30, 30, 30, 30, 30, 30, 30, 30, 30, 30, 30, 30, 30, 30]"
"NoTrust","Teilnehmer A hat Ihnen keine 2 Punkte übermittelt.","Payback","1","undefined","8","0","2","60","1080","241","0","1","1085","0","legacy","[11, 21, 31, 41, 51, 61, 71, 81, 91, 101, 111, 121, 131, 141, 151, 161, 171, 181, 191, 201, 211, 221, 231, 241, 251, 261, 271, 281, 291, 301, 311, 321, 331, 341, 351, 361, 371, 381, 391, 401, 411, 421, 431, 441, 451, 461, 471, 481, 491, 501, 511, 521, 531, 541, 551, 561, 571, 581, 591, 601, 611, 621, 631, 641, 651, 661, 671, 681, 691, 701, 711, 721, 731, 741, 751, 761, 771, 781, 791, 801, 811, 821, 831, 841, 851, 861, 871, 881, 891, 901, 911, 921, 931, 941, 951, 961, 971, 981, 991, 1001, 1011, 1021, 1031, 1041, 1051, 1061, 1071, 1081]","1265","1920","[960, 960, 960, 960, 960, 960, 960, 960, 960, 960, 960, 960, 960, 960, 960, 960, 960, 960, 960, 960, 960, 958, 929, 905, 868, 835, 744, 699, 651, 604, 505, 458, 419, 383, 322, 299, 275, 258, 224, 211, 199, 191, 171, 162, 153, 147, 139, 138, 137, 135, 133, 132, 130, 129, 126, 126, 125, 124, 123, 121, 120, 119, 119, 119, 119, 119, 119, 119, 119, 119, 119, 119, 119, 119, 119, 119, 119, 119, 119, 119, 119, 119, 119, 119, 119, 119, 119, 119, 119, 119, 122, 123, 123, 123, 124, 124, 124, 124, 124, 124, 124, 124, 124, 124, 124, 124, 124, 124]","[1010, 1010, 1010, 1010, 1010, 1010, 1010, 1010, 1010, 1010, 1010, 1010, 1010, 1010, 1010, 1010, 1010, 1010, 1010, 1010, 1010, 1005, 963, 930, 887, 840, 740, 686, 627, 574, 471, 422, 376, 336, 257, 222, 188, 167, 124, 107, 92, 83, 63, 53, 44, 37, 30, 28, 25, 24, 20, 18, 16, 13, 10, 10, 8, 7, 6, 5, 3, 2, 2, 2, 2, 2, 2, 2, 2, 2, 2, 2, 2, 2, 2, 2, 2, 2, 2, 2, 2, 2, 2, 2, 2, 2, 2, 7, 11, 17, 24, 26, 28, 29, 30, 30, 30, 30, 30, 30, 30, 30, 30, 30, 30, 30, 30, 30]"
"Promise","Wie oft werden Sie die Hälfte zurückgeben?","Promise","1","undefined","8","0","3","60","1080","201","0","1","814","0","legacy","[11, 21, 31, 41, 51, 61, 71, 81, 91, 101, 111, 121, 131, 141, 151, 161, 171, 181, 191, 201, 211, 221, 231, 241, 251, 261, 271, 281, 291, 301, 311, 321, 331, 341, 351, 361, 371, 381, 391, 401, 411, 421, 431, 441, 451, 461, 471, 481, 491, 501, 511, 521, 531, 541, 551, 561, 571, 581, 591, 601, 611, 621, 631, 641, 651, 661, 671, 681, 691, 701, 711, 721, 731, 741, 751, 761, 771, 781, 791, 801, 811]","1265","1920","[960, 960, 960, 960, 960, 960, 960, 960, 960, 960, 960, 960, 960, 960, 960, 960, 956, 945, 908, 889, 861, 834, 774, 767, 762, 732, 695, 647, 604, 553, 473, 435, 402, 376, 321, 301, 283, 267, 248, 241, 236, 228, 214, 204, 189, 171, 130, 120, 111, 106, 102, 102, 102, 102, 102, 102, 102, 102, 102, 102, 102, 102, 102, 102, 102, 102, 102, 102, 102, 102, 102, 102, 102, 102, 101, 101, 101, 101, 101, 101, 101]","[1010, 1010, 1010, 1010, 1010, 1010, 1010, 1010, 1010, 1010, 1010, 1010, 1010, 1010, 1010, 1010, 1003, 989, 941, 913, 871, 835, 749, 735, 729, 691, 649, 605, 564, 519, 449, 416, 392, 369, 323, 309, 293, 279, 260, 252, 245, 235, 220, 209, 195, 180, 145, 135, 126, 120, 116, 116, 116, 116, 116, 116, 116, 116, 116, 116, 116, 116, 116, 116, 116, 116, 116, 116, 116, 116, 116, 116, 116, 116, 114, 114, 114, 114, 114, 114, 114]"
"Trust","Teilnehmer A hat Ihnen 2 Punkte übermittelt.","Payback","1","undefined","9","0","3","60","1080","191","5","1","1125","0","legacy","[11, 21, 31, 41, 51, 61, 71, 81, 91, 101, 111, 121, 131, 141, 151, 161, 171, 181, 191, 201, 211, 221, 231, 241, 251, 261, 271, 281, 291, 301, 311, 321, 331, 341, 351, 361, 371, 381, 391, 401, 411, 421, 431, 441, 451, 461, 471, 481, 491, 501, 511, 521, 531, 541, 551, 561, 571, 581, 591, 601, 611, 621, 631, 641, 651, 661, 671, 681, 691, 701, 711, 721, 731, 741, 751, 761, 771, 781, 791, 801, 811, 821, 831, 841, 851, 861, 871, 881, 891, 901, 911, 921, 931, 941, 951, 961, 971, 981, 991, 1001, 1011, 1021, 1031, 1041, 1051, 1061, 1071, 1081, 1091, 1101, 1111, 1121]","1265","1920","[960, 960, 960, 960, 960, 960, 960, 960, 960, 960, 960, 959, 959, 959, 959, 958, 954, 946, 919, 907, 892, 876, 845, 821, 813, 782, 702, 659, 624, 595, 542, 521, 497, 481, 447, 432, 420, 407, 380, 365, 355, 345, 321, 312, 305, 292, 275, 270, 267, 263, 255, 250, 243, 238, 227, 219, 210, 204, 195, 191, 189, 186, 182, 182, 180, 178, 174, 173, 172, 172, 171, 170, 170, 170, 170, 170, 170, 170, 170, 170, 170, 170, 170, 170, 170, 170, 170, 170, 170, 170, 170, 170, 170, 170, 170, 170, 170, 170, 170, 170, 170, 170, 170, 170, 170, 170, 170, 170, 170, 170, 170, 170]","[1010, 1010, 1010, 1010, 1010, 1010, 1010, 1010, 1010, 1010, 1010, 1010, 1009, 1008, 1002, 994, 983, 964, 898, 867, 832, 798, 731, 697, 675, 635, 565, 526, 498, 472, 421, 400, 375, 360, 329, 317, 307, 296, 272, 260, 252, 243, 224, 217, 211, 201, 190, 186, 183, 180, 173, 168, 160, 155, 145, 137, 131, 124, 113, 108, 104, 99, 90, 86, 83, 81, 76, 74, 72, 72, 70, 69, 69, 69, 69, 69, 69, 69, 69, 69, 69, 69, 69, 69, 69, 69, 69, 69, 69, 69, 69, 69, 69, 69, 69, 69, 69, 69, 69, 69, 69, 69, 69, 69, 69, 69, 69, 69, 69, 69, 69, 69]"
"Trust","Teilnehmer A hat Ihnen 2 Punkte übermittelt.","Payback","1","undefined","10","0","3","60","1080","231","5","1","805","0","legacy","[11, 21, 31, 41, 51, 61, 71, 81, 91, 101, 111, 121, 131, 141, 151, 161, 171, 181, 191, 201, 211, 221, 231, 241, 251, 261, 271, 281, 291, 301, 311, 321, 331, 341, 351, 361, 371, 381, 391, 401, 411, 421, 431, 441, 451, 461, 471, 481, 491, 501, 511, 521, 531, 541, 551, 561, 571, 581, 591, 601, 611, 621, 631, 641, 651, 661, 671, 681, 691, 701, 711, 721, 731, 741, 751, 761, 771, 781, 791, 801]","1265","1920","[960, 960, 960, 960, 960, 960, 960, 960, 960, 960, 960, 960, 960, 960, 960, 960, 960, 960, 960, 960, 960, 938, 902, 864, 816, 722, 679, 645, 616, 594, 582, 565, 548, 513, 494, 475, 459, 429, 415, 404, 389, 369, 353, 338, 324, 293, 276, 263, 251, 231, 220, 211, 202, 184, 174, 162, 153, 139, 136, 132, 131, 131, 131, 131, 131, 131, 131, 131, 131, 131, 131, 131, 131, 131, 131, 131, 131, 131, 131, 131]","[1010, 1010, 1010, 1010, 1010, 1010, 1010, 1010, 1010, 1010, 1010, 1010, 1010, 1010, 1010, 1010, 1010, 1010, 1010, 1010, 1004, 970, 928, 877, 821, 714, 663, 620, 581, 555, 533, 506, 476, 418, 393, 367, 345, 307, 291, 279, 268, 249, 237, 223, 214, 186, 173, 162, 154, 136, 127, 120, 111, 94, 87, 76, 69, 60, 55, 53, 52, 52, 52, 52, 52, 52, 52, 52, 52, 52, 52, 52, 52, 52, 52, 52, 52, 52, 52, 52]"
"Trust","Teilnehmer A hat Ihnen 2 Punkte übermittelt.","Payback","1","undefined","11","0","3","60","1080","221","5","1","860","0","legacy","[11, 21, 31, 41, 51, 61, 71, 81, 91, 101, 111, 121, 131, 141, 151, 161, 171, 181, 191, 201, 211, 221, 231, 241, 251, 261, 271, 281, 291, 301, 311, 321, 331, 341, 351, 361, 371, 381, 391, 401, 411, 421, 431, 441, 451, 461, 471, 481, 491, 501, 511, 521, 531, 541, 551, 561, 571, 581, 591, 601, 611, 621, 631, 641, 651, 661, 671, 681, 691, 701, 711, 721, 731, 741, 751, 761, 771, 781, 791, 801, 811, 821, 831, 841, 851]","1265","1920","[960, 960, 960, 960, 960, 960, 960, 960, 960, 960, 960, 960, 960, 960, 960, 960, 959, 956, 952, 948, 940, 912, 886, 867, 866, 804, 801, 777, 741, 674, 639, 615, 590, 551, 532, 520, 511, 486, 478, 468, 459, 439, 427, 415, 397, 366, 348, 335, 326, 310, 301, 290, 281, 261, 254, 248, 242, 231, 228, 225, 224, 219, 218, 217, 216, 214, 213, 213, 212, 210, 209, 209, 208, 208, 208, 208, 208, 208, 208, 208, 208, 208, 208, 208, 208]","[1010, 1010, 1010, 1010, 1010, 1010, 1010, 1010, 1010, 1010, 1010, 1010, 1010, 1010, 1010, 1010, 1010, 1004, 999, 990, 975, 914, 871, 843, 841, 755, 751, 717, 665, 575, 533, 499, 460, 409, 384, 364, 348, 322, 312, 302, 293, 275, 264, 254, 239, 216, 203, 196, 190, 180, 176, 170, 165, 154, 150, 146, 142, 136, 136, 133, 132, 129, 129, 129, 128, 128, 127, 127, 126, 125, 123, 123, 123, 123, 123, 123, 123, 123, 123, 123, 123, 123, 123, 123, 123]"
"Promise","Wie oft werden Sie die Hälfte zurückgeben?","Promise","1","undefined","11","0","4","60","1080","391","5","1","1328","0","legacy","[11, 21, 31, 41, 51, 61, 71, 81, 91, 101, 111, 121, 131, 141, 151, 161, 171, 181, 191, 201, 211, 221, 231, 241, 251, 261, 271, 281, 291, 301, 311, 321, 331, 341, 351, 361, 371, 381, 391, 401, 411, 421, 431, 441, 451, 461, 471, 481, 491, 501, 511, 521, 531, 541, 551, 561, 571, 581, 591, 601, 611, 621, 631, 641, 651, 661, 671, 681, 691, 701, 711, 721, 731, 741, 751, 761, 771, 781, 791, 801, 811, 821, 831, 841, 851, 861, 871, 881, 891, 901, 911, 921, 931, 941, 951, 961, 971, 981, 991, 1001, 1011, 1021, 1031, 1041, 1051, 1061, 1071, 1081, 1091, 1101, 1111, 1121, 1131, 1141, 1151, 1161, 1171, 1181, 1191, 1201, 1211, 1221, 1231, 1241, 1251, 1261, 1271, 1281, 1291, 1301, 1311, 1321]","1265","1920","[960, 960, 960, 960, 960, 960, 960, 960, 960, 960, 960, 960, 960, 960, 960, 960, 960, 960, 960, 960, 960, 960, 960, 960, 960, 960, 960, 960, 960, 960, 960, 958, 957, 954, 951, 937, 927, 905, 874, 805, 780, 769, 721, 604, 536, 466, 402, 288, 242, 199, 167, 124, 108, 100, 96, 88, 84, 83, 81, 79, 79, 78, 78, 76, 76, 76, 76, 75, 75, 75, 75, 75, 75, 75, 75, 75, 75, 75, 75, 75, 75, 75, 75, 75, 75, 75, 75, 76, 77, 81, 82, 86, 87, 88, 89, 91, 92, 92, 92, 93, 93, 93, 93, 93, 93, 93, 93, 93, 93, 93, 93, 93, 93, 93, 93, 93, 93, 93, 93, 93, 93, 93, 93, 93, 93, 93, 93, 93, 93, 93, 93, 93]","[1010, 1010, 1010, 1010, 1010, 1010, 1010, 1010, 1010, 1010, 1010, 1010, 1010, 1010, 1010, 1010, 1010, 1010, 1010, 1010, 1010, 1010, 1010, 1010, 1010, 1010, 1010, 1010, 1010, 1010, 1010, 1011, 1014, 1016, 1017, 1016, 1001, 968, 921, 818, 789, 777, 720, 608, 542, 479, 428, 323, 279, 236, 196, 135, 112, 99, 88, 68, 59, 51, 45, 35, 32, 28, 24, 18, 14, 11, 8, 2, 1, 0, 0, 0, 0, 0, 0, 0, 0, 0, 0, 0, 0, 0, 0, 0, 0, 0, 0, 1, 2, 5, 9, 14, 16, 18, 20, 23, 24, 24, 25, 25, 25, 25, 26, 28, 28, 28, 28, 28, 28, 28, 28, 28, 28, 28, 28, 28, 28, 28, 28, 28, 28, 28, 28, 28, 28, 28, 28, 28, 28, 28, 28, 28]"
"Trust","Teilnehmer A hat Ihnen 2 Punkte übermittelt.","Payback","1","undefined","12","0","4","60","1080","191","5","1","797","0","legacy","[11, 21, 31, 41, 51, 61, 71, 81, 91, 101, 111, 121, 131, 141, 151, 161, 171, 181, 191, 201, 211, 221, 231, 241, 251, 261, 271, 281, 291, 301, 311, 321, 331, 341, 351, 361, 371, 381, 391, 401, 411, 421, 431, 441, 451, 461, 471, 481, 491, 501, 511, 521, 531, 541, 551, 561, 571, 581, 591, 601, 611, 621, 631, 641, 651, 661, 671, 681, 691, 701, 711, 721, 731, 741, 751, 761, 771, 781, 791]","1265","1920","[960, 960, 960, 960, 960, 960, 960, 960, 960, 960, 960, 958, 955, 949, 927, 909, 892, 873, 827, 789, 754, 718, 629, 575, 513, 446, 321, 271, 229, 203, 173, 166, 160, 157, 150, 146, 144, 141, 138, 137, 136, 133, 131, 131, 129, 128, 127, 127, 127, 127, 127, 127, 127, 130, 137, 139, 142, 144, 147, 149, 149, 149, 150, 150, 150, 150, 151, 151, 151, 151, 151, 151, 151, 151, 151, 151, 151, 151, 151]","[1010, 1010, 1010, 1010, 1010, 1010, 1010, 1010, 1010, 1010, 1010, 1010, 1008, 1004, 992, 979, 966, 945, 890, 849, 805, 764, 668, 613, 555, 504, 417, 381, 351, 326, 291, 278, 267, 258, 240, 233, 228, 221, 213, 210, 205, 199, 193, 190, 186, 184, 181, 179, 178, 176, 171, 167, 163, 155, 138, 131, 122, 116, 107, 105, 102, 99, 96, 95, 93, 92, 91, 91, 91, 90, 90, 90, 90, 90, 90, 90, 90, 90, 90]"
"Trust","Teilnehmer A hat Ihnen 2 Punkte übermittelt.","Payback","1","undefined","13","0","4","60","1080","261","5","1","900","0","legacy","[11, 21, 31, 41, 51, 61, 71, 81, 91, 101, 111, 121, 131, 141, 151, 161, 171, 181, 191, 201, 211, 221, 231, 241, 251, 261, 271, 281, 291, 301, 311, 321, 331, 341, 351, 361, 371, 381, 391, 401, 411, 421, 431, 441, 451, 461, 471, 481, 491, 501, 511, 521, 531, 541, 551, 561, 571, 581, 591, 601, 611, 621, 631, 641, 651, 661, 671, 681, 691, 701, 711, 721, 731, 741, 751, 761, 771, 781, 791, 801, 811, 821, 831, 841, 851, 861, 871, 881, 891]","1265","1920","[960, 960, 960, 960, 960, 960, 960, 960, 960, 960, 960, 960, 960, 960, 960, 960, 960, 960, 960, 960, 958, 945, 936, 925, 910, 855, 814, 774, 728, 641, 593, 549, 505, 422, 382, 347, 323, 264, 249, 236, 225, 210, 203, 200, 194, 185, 183, 177, 173, 167, 162, 158, 153, 150, 149, 149, 147, 146, 144, 143, 142, 140, 139, 138, 138, 136, 135, 135, 134, 134, 134, 134, 134, 134, 134, 134, 134, 134, 134, 134, 134, 134, 134, 134, 134, 134, 134, 134, 134]","[1010, 1010, 1010, 1010, 1010, 1010, 1010, 1010, 1010, 1010, 1010, 1010, 1010, 1010, 1010, 1010, 1010, 1010, 1010, 1010, 1005, 987, 976, 962, 944, 894, 853, 817, 776, 689, 642, 594, 550, 471, 435, 402, 382, 335, 323, 309, 299, 282, 276, 272, 266, 252, 247, 236, 229, 211, 202, 192, 181, 170, 166, 162, 159, 155, 151, 149, 147, 140, 136, 134, 130, 123, 122, 120, 117, 112, 111, 108, 106, 102, 101, 100, 99, 98, 98, 98, 98, 98, 98, 98, 98, 98, 98, 98, 98]"
"Trust","Teilnehmer A hat Ihnen 2 Punkte übermittelt.","Payback","1","undefined","14","0","4","60","1080","211","5","1","1015","0","legacy","[11, 21, 31, 41, 51, 61, 71, 81, 91, 101, 111, 121, 131, 141, 151, 161, 171, 181, 191, 201, 211, 221, 231, 241, 251, 261, 271, 281, 291, 301, 311, 321, 331, 341, 351, 361, 371, 381, 391, 401, 411, 421, 431, 441, 451, 461, 471, 481, 491, 501, 511, 521, 531, 541, 551, 561, 571, 581, 591, 601, 611, 621, 631, 641, 651, 661, 671, 681, 691, 701, 711, 721, 731, 741, 751, 761, 771, 781, 791, 801, 811, 821, 831, 841, 851, 861, 871, 881, 891, 901, 911, 921, 931, 941, 951, 961, 971, 981, 991, 1001, 1011]","1265","1920","[960, 960, 960, 960, 960, 960, 960, 960, 960, 960, 960, 960, 960, 960, 959, 952, 948, 940, 930, 898, 871, 840, 809, 733, 693, 651, 614, 547, 519, 491, 465, 434, 418, 409, 396, 377, 369, 360, 353, 339, 331, 323, 319, 307, 302, 300, 299, 295, 290, 290, 290, 290, 289, 285, 279, 271, 268, 261, 258, 251, 248, 247, 244, 240, 237, 235, 232, 227, 226, 224, 222, 220, 220, 220, 220, 220, 220, 220, 220, 220, 220, 220, 220, 220, 220, 220, 220, 220, 220, 220, 220, 220, 220, 220, 220, 220, 220, 220, 220, 220, 220]","[1010, 1010, 1010, 1010, 1010, 1010, 1010, 1010, 1010, 1010, 1010, 1010, 1010, 1010, 1009, 1004, 999, 993, 982, 941, 905, 855, 806, 698, 650, 599, 554, 479, 447, 413, 384, 341, 321, 307, 290, 262, 250, 240, 232, 214, 204, 196, 189, 178, 173, 170, 169, 166, 163, 162, 162, 162, 162, 159, 152, 144, 140, 134, 130, 121, 118, 117, 115, 112, 109, 108, 106, 102, 102, 100, 99, 98, 98, 98, 98, 98, 98, 98, 98, 98, 98, 98, 98, 98, 98, 98, 98, 98, 98, 98, 98, 98, 98, 98, 98, 98, 98, 98, 98, 98, 98]"
"Promise","Wie oft werden Sie die Hälfte zurückgeben?","Promise","1","undefined","14","0","5","60","1080","321","5","1","1209","0","legacy","[11, 21, 31, 41, 51, 61, 71, 81, 91, 101, 111, 121, 131, 141, 151, 161, 171, 181, 191, 201, 211, 221, 231, 241, 251, 261, 271, 281, 291, 301, 311, 321, 331, 341, 351, 361, 371, 381, 391, 401, 411, 421, 431, 441, 451, 461, 471, 481, 491, 501, 511, 521, 531, 541, 551, 561, 571, 581, 591, 601, 611, 621, 631, 641, 651, 661, 671, 681, 691, 701, 711, 721, 731, 741, 751, 761, 771, 781, 791, 801, 811, 821, 831, 841, 851, 861, 871, 881, 891, 901, 911, 921, 931, 941, 951, 961, 971, 981, 991, 1001, 1011, 1021, 1031, 1041, 1051, 1061, 1071, 1081, 1091, 1101, 1111, 1121, 1131, 1141, 1151, 1161, 1171, 1181, 1191, 1201]","1265","1920","[960, 960, 960, 960, 960, 960, 960, 960, 960, 960, 960, 960, 960, 960, 960, 960, 960, 960, 960, 960, 960, 960, 960, 960, 960, 960, 960, 952, 911, 894, 870, 843, 775, 759, 753, 721, 647, 601, 559, 519, 460, 441, 427, 417, 405, 402, 396, 393, 384, 382, 382, 379, 372, 366, 356, 349, 322, 306, 293, 284, 273, 270, 268, 264, 259, 254, 249, 243, 231, 225, 220, 217, 212, 212, 212, 212, 212, 212, 212, 212, 212, 212, 212, 212, 212, 212, 212, 212, 212, 212, 212, 212, 212, 212, 212, 212, 212, 212, 212, 212, 212, 212, 212, 212, 212, 212, 212, 212, 212, 212, 212, 212, 212, 212, 212, 212, 212, 212, 212, 212]","[1010, 1010, 1010, 1010, 1010, 1010, 1010, 1010, 1010, 1010, 1010, 1010, 1010, 1010, 1010, 1010, 1010, 1010, 1010, 1010, 1010, 1010, 1010, 1010, 1010, 1010, 1010, 1010, 995, 982, 958, 931, 837, 814, 807, 758, 653, 597, 543, 493, 414, 389, 367, 350, 323, 311, 298, 287, 266, 257, 257, 253, 235, 227, 213, 203, 169, 151, 136, 124, 110, 106, 102, 98, 94, 90, 87, 84, 77, 74, 71, 69, 66, 66, 66, 66, 66, 66, 66, 66, 66, 66, 66, 66, 66, 66, 66, 66, 66, 66, 66, 66, 66, 66, 66, 66, 66, 66, 66, 66, 66, 66, 66, 66, 66, 66, 66, 66, 66, 66, 66, 66, 66, 66, 66, 66, 66, 66, 66, 66]"
"Trust","Teilnehmer A hat Ihnen 2 Punkte übermittelt.","Payback","1","undefined","15","0","5","60","1080","221","5","1","1095","0","legacy","[11, 21, 31, 41, 51, 61, 71, 81, 91, 101, 111, 121, 131, 141, 151, 161, 171, 181, 191, 201, 211, 221, 231, 241, 251, 261, 271, 281, 291, 301, 311, 321, 331, 341, 351, 361, 371, 381, 391, 401, 411, 421, 431, 441, 451, 461, 471, 481, 491, 501, 511, 521, 531, 541, 551, 561, 571, 581, 591, 601, 611, 621, 631, 641, 651, 661, 671, 681, 691, 701, 711, 721, 731, 741, 751, 761, 771, 781, 791, 801, 811, 821, 831, 841, 851, 861, 871, 881, 891, 901, 911, 921, 931, 941, 951, 961, 971, 981, 991, 1001, 1011, 1021, 1031, 1041, 1051, 1061, 1071, 1081, 1091]","1265","1920","[960, 960, 960, 960, 960, 960, 960, 960, 960, 960, 960, 960, 960, 960, 960, 960, 957, 954, 951, 945, 941, 934, 923, 888, 870, 850, 832, 800, 780, 762, 753, 723, 709, 699, 691, 674, 665, 658, 654, 640, 630, 625, 620, 611, 606, 602, 596, 584, 576, 566, 561, 530, 510, 492, 468, 418, 392, 368, 344, 301, 284, 267, 250, 216, 196, 178, 150, 85, 62, 49, 44, 35, 32, 31, 30, 30, 30, 30, 30, 30, 30, 30, 30, 30, 30, 30, 30, 30, 33, 36, 40, 53, 59, 65, 70, 76, 79, 82, 83, 85, 85, 85, 85, 85, 85, 85, 85, 85, 85]","[1010, 1010, 1010, 1010, 1010, 1010, 1010, 1010, 1010, 1010, 1010, 1010, 1010, 1010, 1010, 1010, 1004, 992, 981, 965, 953, 937, 913, 865, 844, 821, 798, 753, 730, 709, 693, 657, 642, 627, 617, 596, 586, 577, 567, 543, 527, 512, 499, 477, 464, 454, 443, 427, 418, 408, 403, 377, 356, 339, 317, 268, 245, 223, 201, 156, 138, 117, 99, 67, 51, 38, 28, 6, 0, 0, 0, 0, 0, 0, 0, 0, 0, 0, 0, 0, 0, 0, 0, 0, 0, 0, 0, 0, 0, 3, 5, 11, 14, 16, 17, 22, 24, 25, 25, 27, 27, 27, 27, 27, 27, 27, 27, 27, 27]"
"Trust","Teilnehmer A hat Ihnen 2 Punkte übermittelt.","Payback","1","undefined","16","0","5","60","1080","261","5","1","861","0","legacy","[11, 21, 31, 41, 51, 61, 71, 81, 91, 101, 111, 121, 131, 141, 151, 161, 171, 181, 191, 201, 211, 221, 231, 241, 251, 261, 271, 281, 291, 301, 311, 321, 331, 341, 351, 361, 371, 381, 391, 401, 411, 421, 431, 441, 451, 461, 471, 481, 491, 501, 511, 521, 531, 541, 551, 561, 571, 581, 591, 601, 611, 621, 631, 641, 651, 661, 671, 681, 691, 701, 711, 721, 731, 741, 751, 761, 771, 781, 791, 801, 811, 821, 831, 841, 851, 861]","1265","1920","[960, 960, 960, 960, 960, 960, 960, 960, 960, 960, 960, 960, 960, 960, 958, 957, 956, 956, 956, 955, 953, 950, 937, 926, 906, 880, 799, 748, 692, 636, 515, 442, 383, 326, 216, 162, 113, 72, 6, 0, 0, 0, 0, 0, 0, 0, 0, 0, 0, 0, 0, 0, 0, 0, 0, 0, 1, 1, 3, 4, 4, 5, 8, 9, 12, 14, 16, 18, 21, 22, 29, 33, 36, 39, 43, 44, 44, 45, 45, 45, 45, 45, 45, 45, 45, 45]","[1010, 1010, 1010, 1010, 1010, 1010, 1010, 1010, 1010, 1010, 1010, 1010, 1010, 1010, 1010, 1010, 1009, 1009, 1009, 1008, 1007, 1004, 989, 977, 953, 924, 831, 784, 736, 691, 592, 533, 478, 423, 312, 260, 211, 168, 95, 72, 52, 32, 8, 0, 0, 0, 0, 0, 0, 0, 0, 0, 0, 0, 0, 0, 0, 0, 0, 0, 0, 0, 0, 0, 0, 2, 4, 6, 8, 11, 18, 24, 27, 31, 36, 37, 37, 38, 38, 38, 38, 38, 38, 38, 38, 38]"
"NoTrust","Teilnehmer A hat Ihnen keine 2 Punkte übermittelt.","Payback","1","undefined","17","0","5","60","1080","261","0","1","861","0","legacy","[11, 21, 31, 41, 51, 61, 71, 81, 91, 101, 111, 121, 131, 141, 151, 161, 171, 181, 191, 201, 211, 221, 231, 241, 251, 261, 271, 281, 291, 301, 311, 321, 331, 341, 351, 361, 371, 381, 391, 401, 411, 421, 431, 441, 451, 461, 471, 481, 491, 501, 511, 521, 531, 541, 551, 561, 571, 581, 591, 601, 611, 621, 631, 641, 651, 661, 671, 681, 691, 701, 711, 721, 731, 741, 751, 761, 771, 781, 791, 801, 811, 821, 831, 841, 851, 861]","1265","1920","[960, 960, 960, 960, 960, 960, 960, 960, 960, 960, 960, 960, 960, 960, 958, 957, 956, 956, 956, 955, 953, 950, 937, 926, 906, 880, 799, 748, 692, 636, 515, 442, 383, 326, 216, 162, 113, 72, 6, 0, 0, 0, 0, 0, 0, 0, 0, 0, 0, 0, 0, 0, 0, 0, 0, 0, 1, 1, 3, 4, 4, 5, 8, 9, 12, 14, 16, 18, 21, 22, 29, 33, 36, 39, 43, 44, 44, 45, 45, 45, 45, 45, 45, 45, 45, 45]","[1010, 1010, 1010, 1010, 1010, 1010, 1010, 1010, 1010, 1010, 1010, 1010, 1010, 1010, 1010, 1010, 1009, 1009, 1009, 1008, 1007, 1004, 989, 977, 953, 924, 831, 784, 736, 691, 592, 533, 478, 423, 312, 260, 211, 168, 95, 72, 52, 32, 8, 0, 0, 0, 0, 0, 0, 0, 0, 0, 0, 0, 0, 0, 0, 0, 0, 0, 0, 0, 0, 0, 0, 2, 4, 6, 8, 11, 18, 24, 27, 31, 36, 37, 37, 38, 38, 38, 38, 38, 38, 38, 38, 38]"
"Promise","Wie oft werden Sie die Hälfte zurückgeben?","Promise","1","undefined","17","0","6","60","1080","261","0","1","2312","0","legacy","[11, 21, 31, 41, 51, 61, 71, 81, 91, 101, 111, 121, 131, 141, 151, 161, 171, 181, 191, 201, 211, 221, 231, 241, 251, 261, 271, 281, 291, 301, 311, 321, 331, 341, 351, 361, 371, 381, 391, 401, 411, 421, 431, 441, 451, 461, 471, 481, 491, 501, 511, 521, 531, 541, 551, 561, 571, 581, 591, 601, 611, 621, 631, 641, 651, 661, 671, 681, 691, 701, 711, 721, 731, 741, 751, 761, 771, 781, 791, 801, 811, 821, 831, 841, 851, 861, 871, 881, 891, 901, 911, 921, 931, 941, 951, 961, 971, 981, 991, 1001, 1011, 1021, 1031, 1041, 1051, 1061, 1071, 1081, 1091, 1101, 1111, 1121, 1131, 1141, 1151, 1161, 1171, 1181, 1191, 1201, 1211, 1221, 1231, 1241, 1251, 1261, 1271, 1281, 1291, 1301, 1311, 1321, 1331, 1341, 1351, 1361, 1371, 1381, 1391, 1401, 1411, 1421, 1431, 1441, 1451, 1461, 1471, 1481, 1491, 1501, 1511, 1521, 1531, 1541, 1551, 1561, 1571, 1581, 1591, 1601, 1611, 1621, 1631, 1641, 1651, 1661, 1671, 1681, 1691, 1701, 1711, 1721, 1731, 1741, 1751, 1761, 1771, 1781, 1791, 1801, 1811, 1821, 1831, 1841, 1851, 1861, 1871, 1881, 1891, 1901, 1911, 1921, 1931, 1941, 1951, 1961, 1971, 1981, 1991, 2001, 2011, 2021, 2031, 2041, 2051, 2061, 2071, 2081, 2091, 2101, 2111, 2121, 2131, 2141, 2151, 2161, 2171, 2181, 2191, 2201, 2211, 2221, 2231, 2241, 2251, 2261, 2271, 2281, 2291, 2301, 2311]","1265","1920","[960, 960, 960, 960, 960, 960, 960, 960, 960, 960, 960, 960, 960, 960, 960, 960, 960, 960, 960, 960, 959, 957, 952, 935, 920, 898, 881, 851, 829, 799, 772, 698, 656, 609, 571, 470, 424, 381, 335, 266, 241, 221, 201, 168, 150, 135, 124, 100, 89, 74, 60, 34, 28, 21, 17, 12, 11, 10, 9, 9, 9, 9, 9, 9, 9, 9, 9, 9, 9, 9, 9, 9, 9, 13, 16, 22, 25, 28, 32, 40, 44, 49, 54, 66, 71, 77, 85, 97, 103, 108, 113, 115, 115, 115, 115, 115, 115, 115, 115, 115, 115, 115, 115, 115, 115, 115, 115, 115, 115, 115, 115, 115, 115, 115, 115, 115, 115, 115, 115, 115, 115, 115, 115, 115, 115, 115, 115, 115, 115, 115, 115, 115, 115, 115, 115, 115, 115, 115, 115, 115, 115, 115, 115, 115, 115, 115, 115, 115, 115, 115, 115, 115, 115, 115, 115, 115, 115, 115, 115, 115, 115, 115, 115, 115, 115, 115, 115, 115, 115, 115, 115, 115, 115, 115, 115, 115, 115, 115, 115, 115, 115, 115, 115, 115, 115, 115, 115, 115, 115, 115, 115, 115, 115, 115, 115, 115, 115, 115, 115, 115, 115, 115, 115, 115, 115, 115, 115, 115, 115, 115, 115, 115, 115, 115, 115, 115, 115, 115, 115, 115, 115, 115, 115, 115, 115, 115, 115, 115, 115, 115, 115]","[1010, 1010, 1010, 1010, 1010, 1010, 1010, 1010, 1010, 1010, 1010, 1010, 1010, 1010, 1010, 1010, 1010, 1010, 1010, 1010, 1010, 1009, 1001, 974, 947, 916, 889, 837, 804, 762, 723, 630, 582, 531, 483, 382, 333, 292, 251, 194, 173, 160, 146, 115, 100, 82, 70, 38, 25, 5, 0, 0, 0, 0, 0, 0, 0, 0, 0, 0, 0, 0, 0, 0, 0, 0, 0, 0, 0, 0, 0, 0, 0, 2, 6, 13, 17, 20, 24, 33, 36, 40, 45, 52, 56, 60, 65, 72, 75, 78, 80, 82, 82, 82, 82, 82, 82, 82, 82, 82, 82, 82, 82, 82, 82, 82, 82, 82, 82, 82, 82, 82, 82, 82, 82, 82, 82, 82, 82, 82, 82, 82, 82, 82, 82, 82, 82, 82, 82, 82, 82, 82, 82, 82, 82, 82, 82, 82, 82, 82, 82, 82, 82, 82, 82, 82, 82, 82, 82, 82, 82, 82, 82, 82, 82, 82, 82, 82, 82, 82, 82, 82, 82, 82, 82, 82, 82, 82, 82, 82, 82, 82, 82, 82, 82, 82, 82, 82, 82, 82, 82, 82, 82, 82, 82, 82, 82, 82, 82, 82, 82, 82, 82, 82, 82, 82, 82, 82, 82, 82, 82, 82, 82, 82, 82, 82, 82, 82, 82, 82, 82, 82, 82, 82, 82, 82, 82, 82, 82, 82, 82, 82, 82, 82, 82, 82, 82, 82, 82, 82, 82]"
"Trust","Teilnehmer A hat Ihnen 2 Punkte übermittelt.","Payback","1","undefined","18","0","6","60","1080","211","5","1","724","0","legacy","[11, 21, 31, 41, 51, 61, 71, 81, 91, 101, 111, 121, 131, 141, 151, 161, 171, 181, 191, 201, 211, 221, 231, 241, 251, 261, 271, 281, 291, 301, 311, 321, 331, 341, 351, 361, 371, 381, 391, 401, 411, 421, 431, 441, 451, 461, 471, 481, 491, 501, 511, 521, 531, 541, 551, 561, 571, 581, 591, 601, 611, 621, 631, 641, 651, 661, 671, 681, 691, 701, 711, 721]","1265","1920","[960, 960, 960, 960, 960, 960, 960, 960, 960, 960, 960, 960, 960, 957, 955, 952, 947, 939, 933, 925, 907, 858, 820, 780, 734, 637, 589, 538, 491, 404, 369, 345, 328, 309, 301, 289, 282, 271, 264, 260, 255, 244, 239, 233, 222, 205, 196, 188, 183, 176, 174, 174, 173, 172, 172, 172, 172, 172, 172, 172, 172, 172, 172, 172, 172, 172, 172, 172, 172, 172, 172, 172]","[1010, 1010, 1010, 1010, 1010, 1010, 1010, 1010, 1010, 1010, 1010, 1010, 1010, 1009, 1007, 1001, 989, 973, 963, 953, 929, 869, 829, 792, 751, 658, 602, 537, 468, 325, 278, 244, 221, 193, 177, 163, 152, 134, 123, 116, 107, 88, 80, 72, 60, 39, 31, 24, 18, 8, 4, 3, 2, 0, 0, 0, 0, 0, 0, 0, 0, 0, 0, 0, 0, 0, 0, 0, 0, 0, 0, 0]"
"Trust","Teilnehmer A hat Ihnen 2 Punkte übermittelt.","Payback","1","undefined","19","0","6","60","1080","181","5","1","932","0","legacy","[11, 21, 31, 41, 51, 61, 71, 81, 91, 101, 111, 121, 131, 141, 151, 161, 171, 181, 191, 201, 211, 221, 231, 241, 251, 261, 271, 281, 291, 301, 311, 321, 331, 341, 351, 361, 371, 381, 391, 401, 411, 421, 431, 441, 451, 461, 471, 481, 491, 501, 511, 521, 531, 541, 551, 561, 571, 581, 591, 601, 611, 621, 631, 641, 651, 661, 671, 681, 691, 701, 711, 721, 731, 741, 751, 761, 771, 781, 791, 801, 811, 821, 831, 841, 851, 861, 871, 881, 891, 901, 911, 921, 931]","1265","1920","[960, 960, 960, 960, 960, 960, 960, 960, 960, 960, 960, 959, 958, 946, 935, 918, 904, 861, 836, 818, 810, 785, 771, 749, 728, 674, 647, 622, 601, 558, 535, 514, 495, 454, 442, 431, 422, 412, 408, 402, 398, 390, 387, 384, 381, 375, 371, 368, 364, 353, 346, 340, 336, 330, 327, 320, 317, 308, 303, 303, 298, 294, 293, 292, 291, 289, 289, 289, 289, 288, 288, 288, 288, 286, 284, 281, 279, 277, 277, 277, 277, 277, 277, 277, 277, 277, 277, 277, 277, 277, 277, 277, 277]","[1010, 1010, 1010, 1010, 1010, 1010, 1010, 1010, 1010, 1010, 1010, 1010, 1009, 992, 978, 960, 945, 886, 857, 836, 825, 783, 760, 732, 701, 638, 602, 575, 547, 497, 471, 443, 402, 334, 312, 296, 282, 262, 255, 247, 238, 222, 215, 207, 201, 188, 182, 176, 171, 162, 155, 150, 146, 140, 137, 134, 133, 129, 127, 127, 124, 121, 120, 119, 119, 117, 117, 117, 117, 117, 117, 117, 117, 116, 114, 112, 110, 109, 109, 109, 109, 109, 109, 109, 109, 109, 109, 109, 108, 108, 108, 108, 108]"
"Trust","Teilnehmer A hat Ihnen 2 Punkte übermittelt.","Payback","1","undefined","20","0","6","60","1080","161","5","1","942","0","legacy","[11, 21, 31, 41, 51, 61, 71, 81, 91, 101, 111, 121, 131, 141, 151, 161, 171, 181, 191, 201, 211, 221, 231, 241, 251, 261, 272, 281, 291, 301, 311, 321, 331, 341, 351, 361, 371, 381, 391, 401, 411, 421, 431, 441, 451, 461, 471, 481, 491, 501, 511, 521, 531, 541, 551, 561, 571, 581, 591, 601, 611, 621, 631, 641, 651, 661, 671, 681, 691, 701, 711, 721, 731, 741, 751, 761, 771, 781, 791, 801, 811, 821, 831, 841, 851, 861, 871, 881, 891, 901, 911, 921, 931, 941]","1265","1920","[960, 960, 960, 960, 960, 960, 960, 960, 960, 960, 960, 959, 955, 951, 924, 894, 861, 811, 712, 654, 594, 527, 386, 320, 253, 191, 88, 40, 0, 0, 0, 0, 0, 0, 0, 0, 0, 0, 0, 0, 0, 0, 0, 0, 0, 0, 0, 0, 0, 1, 14, 23, 35, 45, 62, 70, 74, 76, 79, 79, 80, 80, 80, 80, 80, 80, 80, 80, 80, 80, 80, 80, 80, 80, 80, 80, 80, 80, 80, 80, 80, 80, 80, 80, 80, 80, 80, 80, 80, 80, 80, 80, 80, 80]","[1010, 1010, 1010, 1010, 1010, 1010, 1010, 1010, 1010, 1010, 1009, 1007, 1004, 996, 960, 928, 886, 829, 706, 636, 558, 480, 340, 275, 214, 161, 65, 21, 0, 0, 0, 0, 0, 0, 0, 0, 0, 0, 0, 0, 0, 0, 0, 0, 0, 0, 0, 0, 0, 1, 12, 18, 27, 32, 42, 45, 47, 48, 49, 49, 50, 50, 50, 50, 50, 50, 50, 50, 50, 50, 50, 50, 50, 50, 50, 50, 50, 50, 50, 50, 50, 50, 50, 50, 50, 50, 50, 50, 50, 50, 50, 50, 50, 50]"
"Promise","Wie oft werden Sie die Hälfte zurückgeben?","Promise","1","undefined","20","0","7","60","1080","361","5","1","1656","0","legacy","[11, 21, 31, 41, 51, 61, 71, 81, 91, 101, 111, 121, 131, 141, 151, 161, 171, 181, 191, 201, 211, 221, 231, 241, 251, 261, 271, 281, 291, 301, 311, 321, 331, 341, 351, 361, 371, 381, 391, 401, 411, 421, 431, 441, 451, 461, 471, 481, 491, 501, 511, 521, 531, 541, 551, 561, 571, 581, 591, 601, 611, 621, 631, 641, 651, 661, 671, 681, 691, 701, 711, 721, 731, 741, 751, 761, 771, 781, 791, 801, 811, 821, 831, 841, 851, 861, 871, 881, 891, 901, 911, 921, 931, 941, 951, 961, 971, 981, 991, 1001, 1011, 1021, 1031, 1041, 1051, 1061, 1071, 1081, 1091, 1101, 1111, 1121, 1131, 1141, 1151, 1161, 1171, 1181, 1191, 1201, 1211, 1221, 1231, 1241, 1251, 1261, 1271, 1281, 1291, 1301, 1311, 1321, 1331, 1341, 1351, 1361, 1371, 1381, 1391, 1401, 1411, 1421, 1431, 1441, 1451, 1461, 1471, 1481, 1491, 1501, 1511, 1521, 1531, 1541, 1551, 1561, 1571, 1581, 1591, 1601, 1611, 1621, 1631, 1641, 1651]","1265","1920","[960, 960, 960, 960, 960, 960, 960, 960, 960, 960, 960, 960, 960, 960, 960, 960, 960, 960, 960, 960, 960, 960, 960, 960, 960, 960, 960, 960, 960, 960, 960, 960, 960, 954, 934, 865, 824, 788, 739, 651, 603, 553, 508, 412, 363, 326, 288, 243, 220, 212, 206, 195, 187, 181, 175, 159, 145, 136, 124, 109, 104, 102, 100, 96, 96, 96, 96, 96, 96, 96, 96, 96, 96, 96, 96, 96, 96, 96, 96, 96, 96, 96, 96, 96, 96, 96, 96, 96, 96, 96, 96, 96, 96, 96, 96, 96, 96, 96, 96, 96, 96, 96, 96, 96, 96, 96, 96, 96, 96, 96, 96, 96, 96, 96, 96, 96, 96, 96, 96, 96, 96, 96, 96, 96, 96, 96, 96, 98, 98, 101, 101, 103, 104, 105, 105, 106, 106, 107, 107, 108, 108, 108, 108, 108, 108, 108, 108, 108, 108, 108, 108, 108, 108, 108, 108, 108, 108, 108, 108, 108, 108, 108, 108, 108, 108]","[1010, 1010, 1010, 1010, 1010, 1010, 1010, 1010, 1010, 1010, 1010, 1010, 1010, 1010, 1010, 1010, 1010, 1010, 1010, 1010, 1010, 1010, 1010, 1010, 1010, 1010, 1010, 1010, 1010, 1010, 1010, 1010, 1010, 1004, 988, 915, 859, 799, 735, 623, 569, 512, 459, 354, 305, 262, 222, 169, 146, 132, 123, 103, 93, 83, 72, 52, 39, 30, 19, 4, 0, 0, 0, 0, 0, 0, 0, 0, 0, 0, 0, 0, 0, 0, 0, 0, 0, 0, 0, 0, 0, 0, 0, 0, 0, 0, 0, 0, 0, 0, 0, 0, 0, 0, 0, 0, 0, 0, 0, 0, 0, 0, 0, 0, 0, 0, 0, 0, 0, 0, 0, 0, 0, 0, 0, 0, 0, 0, 0, 0, 0, 0, 0, 0, 0, 2, 4, 9, 10, 15, 16, 20, 22, 22, 23, 25, 25, 27, 28, 28, 28, 28, 28, 28, 28, 28, 28, 28, 28, 28, 28, 28, 28, 28, 28, 28, 28, 28, 28, 28, 28, 28, 28, 28, 28]"
"Trust","Teilnehmer A hat Ihnen 2 Punkte übermittelt.","Payback","1","undefined","21","0","7","60","1080","191","5","1","725","0","legacy","[11, 21, 31, 41, 51, 61, 71, 81, 91, 101, 111, 121, 131, 141, 151, 161, 171, 181, 191, 201, 211, 221, 231, 241, 251, 261, 271, 281, 291, 301, 311, 321, 331, 341, 351, 361, 371, 381, 391, 401, 411, 421, 431, 441, 451, 461, 471, 481, 491, 501, 511, 521, 531, 541, 551, 561, 571, 581, 591, 601, 611, 621, 631, 641, 651, 661, 671, 681, 691, 701, 711, 721]","1265","1920","[960, 960, 960, 960, 960, 960, 960, 960, 960, 960, 960, 960, 960, 960, 958, 950, 940, 927, 884, 855, 823, 784, 674, 613, 546, 485, 339, 275, 224, 174, 113, 89, 75, 63, 52, 50, 47, 47, 46, 46, 46, 46, 46, 46, 46, 46, 46, 47, 47, 47, 48, 48, 49, 50, 53, 57, 62, 66, 75, 78, 80, 81, 81, 81, 81, 81, 81, 81, 81, 81, 81, 81]","[1010, 1010, 1010, 1010, 1010, 1010, 1010, 1010, 1010, 1010, 1010, 1010, 1010, 1009, 1001, 991, 975, 951, 882, 843, 803, 761, 668, 622, 575, 532, 435, 391, 349, 311, 257, 233, 215, 203, 185, 181, 176, 174, 169, 169, 167, 167, 165, 163, 160, 157, 152, 150, 149, 147, 144, 142, 139, 136, 126, 119, 113, 104, 92, 86, 84, 83, 83, 83, 83, 83, 83, 83, 83, 83, 83, 83]"
"Trust","Teilnehmer A hat Ihnen 2 Punkte übermittelt.","Payback","1","undefined","22","0","7","60","1080","181","5","1","868","0","legacy","[11, 21, 31, 41, 51, 61, 71, 81, 91, 101, 111, 121, 131, 141, 151, 161, 171, 181, 191, 201, 211, 221, 231, 241, 251, 261, 271, 281, 291, 301, 311, 321, 331, 341, 351, 361, 371, 381, 391, 401, 411, 421, 431, 441, 451, 461, 471, 481, 491, 501, 511, 521, 531, 541, 551, 561, 571, 581, 591, 601, 611, 621, 631, 641, 651, 661, 671, 681, 691, 701, 711, 721, 731, 741, 751, 761, 771, 781, 791, 801, 811, 821, 831, 841, 851, 861]","1265","1920","[960, 960, 960, 960, 960, 960, 960, 960, 960, 960, 960, 960, 960, 960, 960, 958, 946, 890, 835, 763, 684, 505, 419, 332, 262, 152, 112, 84, 66, 34, 25, 21, 16, 13, 11, 11, 10, 9, 9, 9, 6, 4, 2, 1, 1, 1, 1, 1, 1, 0, 0, 0, 0, 0, 1, 2, 7, 19, 27, 35, 44, 59, 69, 78, 86, 98, 106, 108, 110, 113, 113, 113, 113, 113, 113, 113, 113, 113, 113, 113, 113, 113, 113, 113, 113, 113]","[1010, 1010, 1010, 1010, 1010, 1010, 1010, 1010, 1010, 1010, 1010, 1010, 1010, 1010, 1010, 1007, 990, 907, 845, 769, 689, 529, 459, 389, 333, 238, 199, 170, 145, 95, 74, 62, 50, 35, 30, 23, 17, 6, 0, 0, 0, 0, 0, 0, 0, 0, 0, 0, 0, 0, 0, 0, 0, 0, 0, 0, 4, 15, 22, 27, 35, 48, 54, 59, 64, 70, 72, 73, 74, 75, 75, 75, 75, 75, 75, 75, 75, 75, 75, 75, 75, 75, 75, 75, 75, 75]"
"Trust","Teilnehmer A hat Ihnen 2 Punkte übermittelt.","Payback","1","undefined","23","0","7","60","1080","241","5","1","957","0","legacy","[11, 21, 31, 41, 51, 61, 71, 81, 91, 101, 111, 121, 131, 141, 151, 161, 171, 181, 191, 201, 211, 221, 231, 241, 251, 261, 271, 281, 291, 301, 311, 321, 331, 341, 351, 361, 371, 381, 391, 401, 411, 421, 431, 441, 451, 461, 471, 481, 491, 501, 511, 521, 531, 541, 551, 561, 571, 581, 591, 601, 611, 621, 631, 641, 651, 661, 671, 681, 691, 701, 711, 721, 731, 741, 751, 761, 771, 781, 791, 801, 811, 821, 831, 841, 851, 861, 871, 881, 891, 901, 911, 921, 931, 941, 951]","1265","1920","[960, 960, 960, 960, 960, 960, 960, 960, 960, 960, 960, 960, 960, 960, 960, 960, 960, 960, 958, 954, 949, 940, 913, 893, 868, 840, 780, 755, 729, 705, 656, 627, 601, 578, 530, 515, 503, 493, 480, 474, 468, 454, 434, 424, 416, 408, 391, 383, 374, 366, 346, 336, 325, 311, 281, 272, 258, 245, 221, 214, 205, 199, 185, 180, 177, 175, 170, 169, 168, 168, 168, 168, 168, 168, 168, 168, 168, 168, 168, 168, 168, 168, 168, 168, 168, 168, 168, 168, 168, 168, 168, 168, 168, 168, 168]","[1010, 1010, 1010, 1010, 1010, 1010, 1010, 1010, 1010, 1010, 1010, 1010, 1010, 1010, 1010, 1010, 1010, 1010, 1008, 1005, 998, 985, 950, 922, 890, 861, 797, 761, 727, 686, 599, 547, 503, 464, 392, 375, 350, 334, 308, 296, 279, 259, 229, 214, 204, 194, 177, 169, 160, 155, 138, 131, 123, 115, 102, 95, 89, 87, 77, 74, 70, 67, 61, 59, 58, 57, 54, 54, 54, 54, 54, 54, 54, 54, 54, 54, 54, 54, 54, 54, 54, 54, 54, 54, 54, 54, 54, 54, 54, 54, 54, 54, 54, 54, 54]"
CHF,TotCHF,final_payoff,sum
"7.5","27.5","[5, 5, 0, 5]","15"
