Condition,PromiseStage,Stage,accuracy,avg_rt,count_decision_sequence,count_loop1,count_trial_sequence,font_size,height,init_time,payoff,response,rt,subject_nr,synth_backend,tTrajectory,time_experiment,width,xTrajectory,yTrajectory
"Promise","Wie oft werden Sie die Hälfte zurückgeben?","Promise","1","undefined","NA","0","0","60","1080","321","NA","1","2174","0","legacy","[11, 21, 31, 41, 51, 61, 71, 81, 91, 101, 111, 121, 131, 141, 151, 161, 171, 181, 191, 201, 211, 221, 231, 241, 251, 261, 271, 281, 291, 301, 311, 321, 331, 341, 351, 361, 371, 381, 391, 401, 411, 421, 431, 441, 451, 461, 471, 481, 491, 501, 511, 521, 531, 541, 551, 561, 571, 581, 591, 601, 611, 621, 631, 641, 651, 661, 671, 681, 691, 701, 711, 721, 731, 741, 751, 761, 771, 781, 791, 801, 811, 821, 831, 841, 851, 861, 871, 881, 891, 901, 911, 921, 931, 941, 951, 961, 971, 981, 991, 1001, 1011, 1021, 1031, 1041, 1051, 1061, 1071, 1081, 1091, 1101, 1111, 1121, 1131, 1141, 1151, 1161, 1171, 1181, 1191, 1201, 1211, 1221, 1231, 1241, 1251, 1261, 1271, 1281, 1291, 1301, 1311, 1321, 1331, 1341, 1351, 1361, 1371, 1381, 1391, 1401, 1411, 1421, 1431, 1441, 1451, 1461, 1471, 1481, 1491, 1501, 1511, 1521, 1531, 1541, 1551, 1561, 1571, 1581, 1591, 1601, 1611, 1621, 1631, 1641, 1651, 1661, 1671, 1681, 1691, 1701, 1711, 1721, 1731, 1741, 1751, 1761, 1771, 1781, 1791, 1801, 1811, 1821, 1831, 1841, 1851, 1861, 1871, 1881, 1891, 1901, 1911, 1921, 1931, 1941, 1951, 1961, 1971, 1981, 1991, 2001, 2011, 2021, 2031, 2041, 2051, 2061, 2071, 2081, 2091, 2101, 2111, 2121, 2131, 2141, 2151, 2161, 2171]","1078","1920","[960, 960, 960, 960, 960, 960, 960, 960, 960, 960, 960, 960, 960, 960, 960, 960, 960, 960, 960, 960, 960, 960, 956, 956, 956, 955, 953, 952, 951, 950, 943, 940, 937, 936, 932, 930, 929, 926, 920, 917, 915, 911, 907, 905, 901, 899, 894, 890, 886, 883, 876, 874, 869, 866, 860, 857, 855, 850, 841, 837, 833, 829, 823, 819, 813, 808, 797, 793, 788, 783, 776, 771, 764, 759, 748, 743, 739, 732, 721, 716, 711, 704, 693, 688, 683, 678, 664, 661, 657, 650, 639, 634, 629, 623, 614, 608, 605, 600, 593, 589, 584, 581, 573, 569, 567, 563, 557, 554, 550, 546, 538, 533, 527, 522, 512, 508, 503, 499, 492, 489, 486, 481, 471, 465, 461, 458, 449, 447, 443, 441, 435, 432, 428, 427, 422, 420, 418, 415, 412, 410, 408, 405, 399, 398, 396, 395, 390, 386, 381, 376, 362, 354, 351, 347, 341, 340, 338, 337, 334, 331, 330, 327, 324, 321, 319, 318, 311, 308, 304, 302, 296, 296, 293, 292, 288, 287, 285, 284, 281, 279, 277, 275, 273, 272, 272, 272, 270, 268, 266, 262, 256, 252, 250, 248, 247, 247, 247, 247, 247, 247, 247, 247, 247, 247, 247, 247, 247, 247, 247, 247, 247, 247, 247, 247, 247, 247, 247]","[1010, 1010, 1010, 1010, 1010, 1010, 1010, 1010, 1010, 1010, 1010, 1010, 1010, 1010, 1010, 1010, 1010, 1010, 1008, 1008, 1005, 1003, 997, 995, 993, 989, 979, 971, 964, 958, 943, 934, 926, 922, 909, 903, 898, 890, 876, 870, 863, 857, 845, 842, 834, 830, 818, 810, 803, 797, 785, 779, 773, 767, 755, 748, 743, 736, 721, 715, 708, 702, 688, 681, 672, 666, 653, 646, 638, 631, 618, 610, 601, 595, 579, 572, 566, 556, 542, 535, 528, 521, 507, 499, 492, 486, 468, 459, 453, 444, 427, 419, 412, 404, 390, 383, 377, 371, 358, 352, 346, 341, 330, 325, 320, 314, 306, 303, 298, 292, 281, 275, 270, 265, 256, 252, 248, 244, 239, 237, 233, 229, 221, 217, 214, 211, 205, 203, 200, 198, 193, 190, 188, 186, 182, 181, 178, 175, 170, 168, 165, 163, 160, 158, 157, 155, 149, 146, 143, 139, 131, 126, 125, 122, 118, 116, 114, 112, 109, 107, 106, 104, 101, 101, 98, 98, 93, 93, 90, 89, 86, 86, 84, 84, 81, 81, 81, 79, 79, 78, 78, 78, 77, 77, 77, 77, 77, 77, 77, 77, 77, 77, 77, 77, 77, 77, 77, 77, 77, 77, 77, 77, 77, 77, 77, 77, 77, 77, 77, 77, 77, 77, 77, 77, 77, 77, 77]"
Cond,DecisionB,Stage,accuracy,avg_rt,count_decision_sequence,count_loop1,count_trial_sequence,font_size,height,init_time,payoff,response,rt,subject_nr,synth_backend,tTrajectory,time_experiment,width,xTrajectory,yTrajectory
"NoTrust","Teilnehmer A hat Ihnen keine 2 Punkte übermittelt.","Payback","1","undefined","0","0","0","60","1080","321","0","1","2174","0","legacy","[11, 21, 31, 41, 51, 61, 71, 81, 91, 101, 111, 121, 131, 141, 151, 161, 171, 181, 191, 201, 211, 221, 231, 241, 251, 261, 271, 281, 291, 301, 311, 321, 331, 341, 351, 361, 371, 381, 391, 401, 411, 421, 431, 441, 451, 461, 471, 481, 491, 501, 511, 521, 531, 541, 551, 561, 571, 581, 591, 601, 611, 621, 631, 641, 651, 661, 671, 681, 691, 701, 711, 721, 731, 741, 751, 761, 771, 781, 791, 801, 811, 821, 831, 841, 851, 861, 871, 881, 891, 901, 911, 921, 931, 941, 951, 961, 971, 981, 991, 1001, 1011, 1021, 1031, 1041, 1051, 1061, 1071, 1081, 1091, 1101, 1111, 1121, 1131, 1141, 1151, 1161, 1171, 1181, 1191, 1201, 1211, 1221, 1231, 1241, 1251, 1261, 1271, 1281, 1291, 1301, 1311, 1321, 1331, 1341, 1351, 1361, 1371, 1381, 1391, 1401, 1411, 1421, 1431, 1441, 1451, 1461, 1471, 1481, 1491, 1501, 1511, 1521, 1531, 1541, 1551, 1561, 1571, 1581, 1591, 1601, 1611, 1621, 1631, 1641, 1651, 1661, 1671, 1681, 1691, 1701, 1711, 1721, 1731, 1741, 1751, 1761, 1771, 1781, 1791, 1801, 1811, 1821, 1831, 1841, 1851, 1861, 1871, 1881, 1891, 1901, 1911, 1921, 1931, 1941, 1951, 1961, 1971, 1981, 1991, 2001, 2011, 2021, 2031, 2041, 2051, 2061, 2071, 2081, 2091, 2101, 2111, 2121, 2131, 2141, 2151, 2161, 2171]","1078","1920","[960, 960, 960, 960, 960, 960, 960, 960, 960, 960, 960, 960, 960, 960, 960, 960, 960, 960, 960, 960, 960, 960, 956, 956, 956, 955, 953, 952, 951, 950, 943, 940, 937, 936, 932, 930, 929, 926, 920, 917, 915, 911, 907, 905, 901, 899, 894, 890, 886, 883, 876, 874, 869, 866, 860, 857, 855, 850, 841, 837, 833, 829, 823, 819, 813, 808, 797, 793, 788, 783, 776, 771, 764, 759, 748, 743, 739, 732, 721, 716, 711, 704, 693, 688, 683, 678, 664, 661, 657, 650, 639, 634, 629, 623, 614, 608, 605, 600, 593, 589, 584, 581, 573, 569, 567, 563, 557, 554, 550, 546, 538, 533, 527, 522, 512, 508, 503, 499, 492, 489, 486, 481, 471, 465, 461, 458, 449, 447, 443, 441, 435, 432, 428, 427, 422, 420, 418, 415, 412, 410, 408, 405, 399, 398, 396, 395, 390, 386, 381, 376, 362, 354, 351, 347, 341, 340, 338, 337, 334, 331, 330, 327, 324, 321, 319, 318, 311, 308, 304, 302, 296, 296, 293, 292, 288, 287, 285, 284, 281, 279, 277, 275, 273, 272, 272, 272, 270, 268, 266, 262, 256, 252, 250, 248, 247, 247, 247, 247, 247, 247, 247, 247, 247, 247, 247, 247, 247, 247, 247, 247, 247, 247, 247, 247, 247, 247, 247]","[1010, 1010, 1010, 1010, 1010, 1010, 1010, 1010, 1010, 1010, 1010, 1010, 1010, 1010, 1010, 1010, 1010, 1010, 1008, 1008, 1005, 1003, 997, 995, 993, 989, 979, 971, 964, 958, 943, 934, 926, 922, 909, 903, 898, 890, 876, 870, 863, 857, 845, 842, 834, 830, 818, 810, 803, 797, 785, 779, 773, 767, 755, 748, 743, 736, 721, 715, 708, 702, 688, 681, 672, 666, 653, 646, 638, 631, 618, 610, 601, 595, 579, 572, 566, 556, 542, 535, 528, 521, 507, 499, 492, 486, 468, 459, 453, 444, 427, 419, 412, 404, 390, 383, 377, 371, 358, 352, 346, 341, 330, 325, 320, 314, 306, 303, 298, 292, 281, 275, 270, 265, 256, 252, 248, 244, 239, 237, 233, 229, 221, 217, 214, 211, 205, 203, 200, 198, 193, 190, 188, 186, 182, 181, 178, 175, 170, 168, 165, 163, 160, 158, 157, 155, 149, 146, 143, 139, 131, 126, 125, 122, 118, 116, 114, 112, 109, 107, 106, 104, 101, 101, 98, 98, 93, 93, 90, 89, 86, 86, 84, 84, 81, 81, 81, 79, 79, 78, 78, 78, 77, 77, 77, 77, 77, 77, 77, 77, 77, 77, 77, 77, 77, 77, 77, 77, 77, 77, 77, 77, 77, 77, 77, 77, 77, 77, 77, 77, 77, 77, 77, 77, 77, 77, 77]"
"Trust","Teilnehmer A hat Ihnen 2 Punkte übermittelt.","Payback","0","undefined","1","0","0","60","1080","281","10","2","1062","0","legacy","[11, 21, 31, 41, 51, 61, 71, 81, 91, 101, 111, 121, 131, 141, 151, 161, 171, 181, 191, 201, 211, 221, 231, 241, 251, 261, 271, 281, 291, 301, 311, 321, 331, 341, 351, 361, 371, 381, 391, 401, 411, 421, 431, 441, 451, 461, 471, 481, 491, 501, 511, 521, 531, 541, 551, 561, 571, 581, 591, 601, 611, 621, 631, 641, 651, 661, 671, 681, 691, 701, 711, 721, 731, 741, 751, 761, 771, 781, 791, 801, 811, 821, 831, 841, 851, 861, 871, 881, 891, 901, 911, 921, 931, 941, 951, 961, 971, 981, 991, 1001, 1011, 1021, 1031, 1041, 1051, 1061]","1078","1920","[960, 960, 960, 960, 960, 960, 960, 960, 960, 960, 960, 960, 960, 960, 960, 960, 960, 960, 960, 960, 960, 960, 962, 964, 967, 974, 986, 994, 1001, 1005, 1018, 1026, 1035, 1044, 1055, 1059, 1065, 1071, 1080, 1085, 1090, 1096, 1107, 1114, 1124, 1131, 1141, 1148, 1157, 1162, 1182, 1198, 1213, 1221, 1243, 1257, 1265, 1274, 1292, 1298, 1305, 1317, 1333, 1341, 1348, 1353, 1363, 1367, 1372, 1378, 1397, 1407, 1415, 1420, 1434, 1442, 1452, 1463, 1491, 1511, 1534, 1563, 1621, 1645, 1665, 1686, 1724, 1739, 1755, 1763, 1771, 1772, 1772, 1774, 1777, 1778, 1780, 1781, 1781, 1781, 1781, 1781, 1781, 1781, 1781, 1781]","[1010, 1010, 1010, 1010, 1010, 1010, 1010, 1010, 1010, 1010, 1010, 1010, 1010, 1010, 1010, 1010, 1010, 1010, 1010, 1010, 1009, 1005, 995, 988, 980, 969, 943, 925, 909, 897, 871, 858, 841, 828, 801, 791, 777, 765, 744, 734, 724, 711, 686, 673, 657, 645, 622, 609, 596, 584, 551, 531, 511, 497, 468, 448, 438, 426, 404, 394, 384, 368, 345, 335, 323, 315, 302, 297, 291, 286, 279, 275, 272, 264, 256, 252, 247, 240, 224, 212, 201, 189, 166, 155, 146, 137, 117, 109, 101, 96, 91, 90, 90, 88, 84, 84, 83, 82, 82, 82, 82, 82, 82, 82, 82, 82]"
"Trust","Teilnehmer A hat Ihnen 2 Punkte übermittelt.","Payback","0","undefined","2","0","0","60","1080","291","10","2","1286","0","legacy","[11, 21, 31, 41, 51, 61, 71, 81, 91, 101, 111, 121, 131, 141, 151, 161, 171, 181, 191, 201, 211, 221, 231, 241, 251, 261, 271, 281, 291, 301, 311, 321, 331, 341, 351, 361, 371, 381, 391, 401, 411, 421, 431, 441, 451, 461, 471, 481, 491, 501, 511, 521, 531, 541, 551, 561, 571, 581, 591, 601, 611, 621, 631, 641, 651, 661, 671, 681, 691, 701, 711, 721, 731, 741, 751, 761, 771, 781, 791, 801, 811, 821, 831, 841, 851, 861, 871, 881, 891, 901, 911, 921, 931, 941, 951, 961, 971, 981, 991, 1001, 1011, 1021, 1031, 1041, 1051, 1061, 1071, 1081, 1091, 1101, 1111, 1121, 1131, 1141, 1151, 1161, 1171, 1181, 1191, 1201, 1211, 1221, 1231, 1241, 1251, 1261, 1271, 1281]","1078","1920","[960, 960, 960, 960, 960, 960, 960, 960, 958, 958, 958, 958, 958, 958, 958, 958, 958, 958, 958, 958, 958, 958, 963, 963, 964, 967, 974, 978, 984, 992, 1006, 1015, 1018, 1024, 1039, 1045, 1052, 1062, 1081, 1090, 1102, 1113, 1129, 1136, 1143, 1148, 1157, 1163, 1168, 1175, 1186, 1192, 1198, 1206, 1221, 1227, 1235, 1243, 1256, 1262, 1271, 1277, 1290, 1295, 1302, 1308, 1321, 1329, 1333, 1341, 1353, 1359, 1367, 1374, 1392, 1402, 1412, 1421, 1444, 1454, 1468, 1478, 1500, 1509, 1516, 1526, 1544, 1553, 1560, 1568, 1578, 1582, 1586, 1590, 1604, 1609, 1614, 1620, 1627, 1630, 1632, 1636, 1641, 1645, 1646, 1648, 1651, 1651, 1653, 1653, 1655, 1658, 1658, 1659, 1659, 1659, 1659, 1660, 1660, 1660, 1662, 1662, 1662, 1662, 1662, 1662, 1662, 1662]","[1010, 1010, 1010, 1010, 1010, 1010, 1010, 1010, 1010, 1010, 1010, 1010, 1010, 1010, 1010, 1010, 1010, 1010, 1007, 1005, 1003, 1000, 988, 985, 976, 970, 955, 947, 932, 917, 886, 872, 862, 850, 823, 805, 790, 772, 742, 730, 714, 701, 679, 669, 661, 650, 632, 623, 613, 604, 584, 574, 564, 554, 533, 523, 513, 503, 484, 475, 466, 456, 438, 431, 421, 412, 396, 389, 383, 375, 360, 351, 343, 336, 320, 312, 305, 299, 282, 275, 265, 259, 243, 237, 231, 224, 213, 209, 203, 199, 193, 191, 188, 184, 174, 172, 168, 164, 160, 158, 157, 154, 151, 148, 147, 146, 144, 143, 142, 141, 140, 137, 137, 137, 136, 135, 135, 134, 133, 133, 132, 132, 132, 131, 131, 131, 131, 131]"
"Promise","Wie oft werden Sie die Hälfte zurückgeben?","Promise","1","undefined","2","0","1","60","1080","271","10","1","1392","0","legacy","[11, 21, 31, 41, 51, 61, 71, 81, 91, 101, 111, 121, 131, 141, 151, 161, 171, 181, 191, 201, 211, 221, 231, 241, 251, 261, 271, 281, 291, 301, 311, 321, 331, 341, 351, 361, 371, 381, 391, 401, 411, 421, 431, 441, 451, 461, 471, 481, 491, 501, 511, 521, 531, 541, 551, 561, 571, 581, 591, 601, 611, 621, 631, 641, 651, 661, 671, 681, 691, 701, 711, 721, 731, 741, 751, 761, 771, 781, 791, 801, 811, 821, 831, 841, 851, 861, 871, 881, 891, 901, 911, 921, 931, 941, 951, 961, 971, 981, 991, 1001, 1011, 1021, 1031, 1041, 1051, 1061, 1071, 1081, 1091, 1101, 1111, 1121, 1131, 1141, 1151, 1161, 1171, 1181, 1191, 1201, 1211, 1221, 1231, 1241, 1251, 1261, 1271, 1281, 1291, 1301, 1311, 1321, 1331, 1341, 1351, 1361, 1371, 1381, 1391]","1078","1920","[960, 960, 960, 960, 960, 960, 960, 960, 960, 960, 960, 960, 960, 960, 960, 960, 959, 959, 957, 954, 951, 946, 942, 932, 930, 926, 922, 914, 911, 909, 903, 893, 889, 883, 875, 860, 855, 848, 841, 830, 823, 815, 807, 792, 785, 780, 773, 763, 757, 751, 746, 736, 730, 725, 721, 713, 709, 706, 704, 695, 692, 688, 684, 677, 671, 667, 662, 652, 648, 644, 640, 632, 627, 621, 615, 604, 595, 589, 582, 565, 557, 549, 542, 527, 522, 515, 507, 491, 481, 472, 458, 433, 424, 412, 402, 379, 367, 357, 350, 331, 324, 316, 308, 294, 287, 282, 276, 266, 263, 258, 257, 253, 251, 250, 247, 243, 240, 239, 238, 237, 236, 235, 233, 232, 230, 229, 227, 223, 220, 219, 217, 215, 215, 214, 214, 214, 214, 214, 214]","[1010, 1010, 1010, 1010, 1010, 1010, 1010, 1010, 1010, 1010, 1010, 1010, 1010, 1010, 1010, 1010, 1010, 1009, 1005, 996, 990, 983, 975, 959, 953, 946, 938, 922, 915, 907, 895, 877, 867, 856, 845, 823, 812, 800, 790, 770, 759, 748, 735, 715, 706, 698, 689, 672, 661, 652, 643, 627, 618, 608, 602, 587, 581, 574, 566, 553, 545, 541, 532, 518, 511, 505, 497, 483, 477, 471, 466, 454, 446, 440, 431, 417, 408, 403, 395, 381, 376, 369, 364, 352, 346, 339, 331, 318, 309, 300, 290, 274, 267, 259, 252, 239, 230, 223, 219, 205, 199, 194, 188, 177, 173, 169, 166, 160, 159, 156, 154, 151, 148, 148, 146, 143, 141, 140, 139, 139, 139, 138, 137, 135, 134, 133, 132, 128, 127, 126, 124, 123, 123, 123, 123, 123, 123, 123, 123]"
"Trust","Teilnehmer A hat Ihnen 2 Punkte übermittelt.","Payback","0","undefined","3","0","1","60","1080","271","10","2","1150","0","legacy","[11, 21, 31, 41, 51, 61, 71, 81, 91, 101, 111, 121, 131, 141, 151, 161, 171, 181, 191, 201, 211, 221, 231, 241, 251, 261, 271, 281, 291, 301, 311, 321, 331, 341, 351, 361, 371, 381, 391, 401, 411, 421, 431, 441, 451, 461, 471, 481, 491, 501, 511, 521, 531, 541, 551, 561, 571, 581, 591, 601, 611, 621, 631, 641, 651, 661, 671, 681, 691, 701, 711, 721, 731, 741, 751, 761, 771, 781, 791, 801, 811, 821, 831, 841, 851, 861, 871, 881, 891, 901, 911, 921, 931, 941, 951, 961, 971, 981, 991, 1001, 1011, 1021, 1031, 1041, 1051, 1061, 1071, 1081, 1091, 1101, 1111, 1121, 1131, 1141]","1078","1920","[960, 960, 960, 960, 960, 960, 960, 960, 960, 960, 960, 960, 960, 960, 960, 960, 960, 960, 960, 960, 960, 961, 968, 972, 976, 979, 993, 1003, 1014, 1028, 1050, 1062, 1069, 1080, 1096, 1103, 1107, 1116, 1131, 1141, 1147, 1156, 1168, 1173, 1181, 1188, 1200, 1207, 1213, 1222, 1239, 1247, 1255, 1263, 1276, 1284, 1290, 1298, 1316, 1325, 1333, 1342, 1356, 1364, 1370, 1377, 1392, 1397, 1403, 1407, 1417, 1423, 1430, 1439, 1458, 1466, 1475, 1485, 1507, 1517, 1525, 1532, 1551, 1562, 1575, 1587, 1616, 1628, 1636, 1645, 1660, 1667, 1673, 1682, 1697, 1703, 1710, 1713, 1723, 1726, 1728, 1732, 1740, 1741, 1744, 1747, 1750, 1751, 1752, 1752, 1753, 1753, 1753, 1753]","[1010, 1010, 1010, 1010, 1010, 1010, 1010, 1010, 1010, 1010, 1010, 1010, 1010, 1010, 1010, 1010, 1010, 1010, 1010, 1010, 1009, 1002, 981, 969, 957, 944, 904, 878, 854, 832, 794, 775, 762, 747, 720, 707, 695, 680, 659, 647, 639, 629, 614, 609, 600, 590, 572, 562, 552, 543, 525, 513, 504, 495, 479, 471, 463, 456, 439, 430, 423, 414, 399, 390, 384, 376, 363, 358, 353, 349, 338, 332, 327, 320, 307, 303, 297, 292, 279, 272, 266, 260, 246, 238, 228, 220, 202, 196, 190, 184, 174, 167, 163, 158, 147, 143, 139, 137, 131, 128, 127, 124, 120, 119, 118, 116, 113, 113, 112, 111, 110, 110, 110, 110]"
"Trust","Teilnehmer A hat Ihnen 2 Punkte übermittelt.","Payback","0","undefined","4","0","1","60","1080","271","10","2","1174","0","legacy","[11, 21, 31, 41, 51, 61, 71, 81, 91, 101, 111, 121, 131, 141, 151, 161, 171, 181, 191, 201, 211, 221, 231, 241, 251, 261, 271, 281, 291, 301, 311, 321, 331, 341, 351, 361, 371, 381, 391, 401, 411, 421, 431, 441, 451, 461, 471, 481, 491, 501, 511, 521, 531, 541, 551, 561, 571, 581, 591, 601, 611, 621, 631, 641, 651, 661, 671, 681, 691, 701, 711, 721, 731, 741, 751, 761, 771, 781, 791, 801, 811, 821, 831, 841, 851, 861, 871, 881, 891, 901, 911, 921, 931, 941, 951, 961, 971, 981, 991, 1001, 1011, 1021, 1031, 1041, 1051, 1061, 1071, 1081, 1091, 1101, 1111, 1121, 1131, 1141, 1151, 1161, 1171]","1078","1920","[960, 960, 960, 960, 960, 960, 960, 960, 960, 960, 960, 960, 960, 960, 960, 960, 960, 960, 961, 963, 967, 970, 982, 988, 995, 1001, 1017, 1025, 1034, 1039, 1054, 1062, 1070, 1078, 1095, 1102, 1110, 1118, 1137, 1146, 1156, 1164, 1181, 1189, 1198, 1205, 1218, 1223, 1231, 1238, 1250, 1260, 1269, 1280, 1301, 1313, 1328, 1342, 1362, 1373, 1381, 1394, 1417, 1425, 1433, 1440, 1454, 1462, 1471, 1479, 1492, 1497, 1502, 1509, 1520, 1529, 1534, 1541, 1558, 1565, 1571, 1576, 1587, 1592, 1598, 1603, 1612, 1620, 1625, 1633, 1646, 1654, 1660, 1667, 1682, 1691, 1697, 1705, 1718, 1722, 1727, 1729, 1733, 1735, 1736, 1737, 1739, 1739, 1739, 1740, 1741, 1741, 1743, 1743, 1743, 1743, 1743]","[1010, 1010, 1010, 1010, 1010, 1010, 1010, 1010, 1010, 1010, 1010, 1010, 1010, 1010, 1010, 1010, 1010, 1010, 1006, 1002, 997, 991, 978, 969, 963, 953, 931, 919, 908, 900, 878, 867, 856, 846, 825, 816, 805, 791, 762, 749, 734, 724, 700, 690, 679, 672, 653, 644, 631, 621, 599, 585, 572, 559, 534, 522, 502, 486, 461, 445, 432, 417, 385, 375, 365, 354, 338, 329, 320, 312, 297, 291, 286, 279, 268, 262, 257, 252, 241, 236, 233, 229, 222, 218, 214, 210, 203, 198, 194, 190, 182, 177, 174, 170, 159, 155, 150, 146, 138, 136, 132, 131, 127, 126, 125, 124, 123, 123, 123, 122, 122, 121, 120, 120, 120, 119, 119]"
"Trust","Teilnehmer A hat Ihnen 2 Punkte übermittelt.","Payback","0","undefined","5","0","1","60","1080","271","10","-1","8000","0","legacy","[11, 21, 31, 41, 51, 61, 71, 81, 91, 101, 111, 121, 131, 141, 151, 161, 171, 181, 191, 201, 211, 221, 231, 241, 251, 261, 271, 281, 291, 301, 311, 321, 331, 341, 351, 361, 371, 381, 391, 401, 411, 421, 431, 441, 451, 461, 471, 481, 491, 501, 511, 521, 531, 541, 551, 561, 571, 581, 591, 601, 611, 621, 631, 641, 651, 661, 671, 681, 691, 701, 711, 721, 731, 741, 751, 761, 771, 781, 791, 801, 811, 821, 831, 841, 851, 861, 871, 881, 891, 901, 911, 921, 931, 941, 951, 961, 971, 981, 991, 1001, 1011, 1021, 1031, 1041, 1051, 1061, 1071, 1081, 1091, 1101, 1111, 1121, 1131, 1141, 1151, 1161, 1171, 1181, 1191, 1201, 1211, 1221, 1231, 1241, 1251, 1261, 1271, 1281, 1291, 1301, 1311, 1321, 1331, 1341, 1351, 1361, 1371, 1381, 1391, 1401, 1411, 1421, 1431, 1441, 1451, 1461, 1471, 1481, 1491, 1501, 1511, 1521, 1531, 1541, 1551, 1561, 1571, 1581, 1591, 1601, 1611, 1621, 1631, 1641, 1651, 1661, 1671, 1681, 1691, 1701, 1711, 1721, 1731, 1741, 1751, 1761, 1771, 1781, 1791, 1801, 1811, 1821, 1831, 1841, 1851, 1861, 1871, 1881, 1891, 1901, 1911, 1921, 1931, 1941, 1951, 1961, 1971, 1981, 1991, 2001, 2011, 2021, 2031, 2041, 2051, 2061, 2071, 2081, 2091, 2101, 2111, 2121, 2131, 2141, 2151, 2161, 2171, 2181, 2191, 2201, 2211, 2221, 2231, 2241, 2251, 2261, 2271, 2281, 2291, 2301, 2311, 2321, 2331, 2341, 2351, 2361, 2371, 2381, 2391, 2401, 2411, 2421, 2431, 2441, 2451, 2461, 2471, 2481, 2491, 2501, 2511, 2521, 2531, 2541, 2551, 2561, 2571, 2581, 2591, 2601, 2611, 2621, 2631, 2641, 2651, 2661, 2671, 2681, 2691, 2701, 2711, 2721, 2731, 2741, 2751, 2761, 2771, 2781, 2791, 2801, 2811, 2821, 2831, 2841, 2851, 2861, 2871, 2881, 2891, 2901, 2911, 2921, 2931, 2941, 2951, 2961, 2971, 2981, 2991, 3001, 3011, 3021, 3031, 3041, 3051, 3061, 3071, 3081, 3091, 3101, 3111, 3121, 3131, 3141, 3151, 3161, 3171, 3181, 3191, 3201, 3211, 3221, 3231, 3241, 3251, 3261, 3271, 3281, 3291, 3301, 3311, 3321, 3331, 3341, 3351, 3361, 3371, 3381, 3391, 3401, 3411, 3421, 3431, 3441, 3451, 3461, 3471, 3481, 3491, 3501, 3511, 3521, 3531, 3541, 3551, 3561, 3571, 3581, 3591, 3601, 3611, 3621, 3631, 3641, 3651, 3661, 3671, 3681, 3691, 3701, 3711, 3721, 3731, 3741, 3751, 3761, 3771, 3781, 3791, 3801, 3811, 3821, 3831, 3841, 3851, 3861, 3871, 3881, 3891, 3901, 3911, 3921, 3931, 3941, 3951, 3961, 3971, 3981, 3991, 4001, 4011, 4021, 4031, 4041, 4051, 4061, 4071, 4081, 4091, 4101, 4111, 4121, 4131, 4141, 4151, 4161, 4171, 4181, 4191, 4201, 4211, 4221, 4231, 4241, 4251, 4261, 4271, 4281, 4291, 4301, 4311, 4321, 4331, 4341, 4351, 4361, 4371, 4381, 4391, 4401, 4411, 4421, 4431, 4441, 4451, 4461, 4471, 4481, 4491, 4501, 4511, 4521, 4531, 4541, 4551, 4561, 4571, 4581, 4591, 4601, 4611, 4621, 4631, 4641, 4651, 4661, 4671, 4681, 4691, 4701, 4711, 4721, 4731, 4741, 4751, 4761, 4771, 4781, 4791, 4801, 4811, 4821, 4831, 4841, 4851, 4861, 4871, 4881, 4891, 4901, 4911, 4921, 4931, 4941, 4951, 4961, 4971, 4981, 4991, 5001, 5011, 5021, 5031, 5041, 5051, 5061, 5071, 5081, 5091, 5101, 5111, 5121, 5131, 5141, 5151, 5161, 5171, 5181, 5191, 5201, 5211, 5221, 5231, 5241, 5251, 5261, 5271, 5281, 5291, 5301, 5311, 5321, 5331, 5341, 5351, 5361, 5371, 5381, 5391, 5401, 5411, 5421, 5431, 5441, 5451, 5461, 5471, 5481, 5491, 5501, 5511, 5521, 5531, 5541, 5551, 5561, 5571, 5581, 5591, 5601, 5611, 5621, 5631, 5641, 5651, 5661, 5671, 5681, 5691, 5701, 5711, 5721, 5731, 5741, 5751, 5761, 5771, 5781, 5791, 5801, 5811, 5821, 5831, 5841, 5851, 5861, 5871, 5881, 5891, 5901, 5911, 5921, 5931, 5941, 5951, 5961, 5971, 5981, 5991, 6001, 6011, 6021, 6031, 6041, 6051, 6061, 6071, 6081, 6091, 6101, 6111, 6121, 6131, 6141, 6151, 6161, 6171, 6181, 6191, 6201, 6211, 6221, 6231, 6241, 6251, 6261, 6271, 6281, 6291, 6301, 6311, 6321, 6331, 6341, 6351, 6361, 6371, 6381, 6391, 6401, 6411, 6421, 6431, 6441, 6451, 6461, 6471, 6481, 6491, 6501, 6511, 6521, 6531, 6541, 6551, 6561, 6571, 6581, 6591, 6601, 6611, 6621, 6631, 6641, 6651, 6661, 6671, 6681, 6691, 6701, 6711, 6721, 6731, 6741, 6751, 6761, 6771, 6781, 6791, 6801, 6811, 6821, 6831, 6841, 6851, 6861, 6871, 6881, 6891, 6901, 6911, 6921, 6931, 6941, 6951, 6961, 6971, 6981, 6991, 7001, 7011, 7021, 7031, 7041, 7051, 7061, 7071, 7081, 7091, 7101, 7111, 7121, 7131, 7141, 7151, 7161, 7171, 7181, 7191, 7201, 7211, 7221, 7231, 7241, 7251, 7261, 7271, 7281, 7291, 7301, 7311, 7321, 7331, 7341, 7351, 7361, 7371, 7381, 7391, 7401, 7411, 7421, 7431, 7441, 7451, 7461, 7471, 7481, 7491, 7501, 7511, 7521, 7531, 7541, 7551, 7561, 7571, 7581, 7591, 7601, 7611, 7621, 7631, 7641, 7651, 7661, 7671, 7681, 7691, 7701, 7711, 7721, 7731, 7741, 7751, 7761, 7771, 7781, 7791, 7801, 7811, 7821, 7831, 7841, 7851, 7861, 7871, 7881, 7891, 7901, 7911, 7921, 7931, 7941, 7951, 7961, 7971, 7981, 7991, 8001]","1078","1920","[960, 960, 960, 960, 960, 960, 960, 960, 960, 960, 960, 960, 960, 960, 960, 960, 960, 960, 960, 960, 963, 964, 973, 977, 984, 993, 1009, 1016, 1021, 1027, 1038, 1043, 1049, 1055, 1063, 1069, 1075, 1080, 1090, 1096, 1101, 1106, 1117, 1122, 1128, 1133, 1140, 1145, 1150, 1155, 1163, 1168, 1174, 1180, 1192, 1201, 1207, 1218, 1234, 1241, 1247, 1254, 1271, 1279, 1286, 1293, 1308, 1319, 1329, 1338, 1355, 1361, 1371, 1379, 1394, 1401, 1409, 1415, 1427, 1433, 1440, 1444, 1459, 1466, 1474, 1479, 1490, 1496, 1498, 1503, 1518, 1527, 1534, 1541, 1555, 1564, 1570, 1580, 1596, 1604, 1613, 1623, 1635, 1642, 1651, 1660, 1680, 1687, 1693, 1701, 1710, 1717, 1720, 1724, 1728, 1730, 1731, 1734, 1735, 1736, 1736, 1736, 1736, 1736, 1736, 1736, 1736, 1736, 1736, 1736, 1736, 1736, 1736, 1736, 1736, 1736, 1736, 1736, 1736, 1736, 1736, 1736, 1736, 1736, 1736, 1736, 1736, 1736, 1736, 1736, 1736, 1736, 1736, 1736, 1736, 1736, 1736, 1736, 1736, 1736, 1736, 1736, 1736, 1736, 1736, 1736, 1736, 1736, 1736, 1736, 1736, 1736, 1736, 1736, 1736, 1736, 1736, 1736, 1736, 1736, 1736, 1736, 1736, 1736, 1736, 1736, 1736, 1736, 1736, 1736, 1736, 1736, 1736, 1736, 1736, 1736, 1736, 1736, 1736, 1736, 1736, 1736, 1736, 1736, 1736, 1736, 1736, 1736, 1736, 1736, 1736, 1736, 1736, 1736, 1736, 1736, 1736, 1736, 1736, 1736, 1736, 1736, 1736, 1736, 1736, 1736, 1736, 1736, 1736, 1736, 1736, 1736, 1736, 1736, 1736, 1736, 1736, 1736, 1736, 1736, 1736, 1736, 1736, 1736, 1736, 1736, 1736, 1736, 1736, 1736, 1736, 1736, 1736, 1736, 1736, 1736, 1736, 1736, 1736, 1736, 1736, 1736, 1736, 1736, 1736, 1736, 1736, 1736, 1736, 1736, 1736, 1736, 1736, 1736, 1736, 1736, 1736, 1736, 1736, 1736, 1736, 1736, 1736, 1736, 1736, 1736, 1736, 1736, 1736, 1736, 1736, 1736, 1736, 1736, 1736, 1736, 1736, 1736, 1736, 1736, 1736, 1736, 1736, 1736, 1736, 1736, 1736, 1736, 1736, 1736, 1736, 1736, 1736, 1736, 1736, 1736, 1736, 1736, 1736, 1736, 1736, 1736, 1736, 1736, 1736, 1736, 1736, 1736, 1736, 1736, 1736, 1736, 1736, 1736, 1736, 1736, 1736, 1736, 1736, 1736, 1736, 1736, 1736, 1736, 1736, 1736, 1736, 1736, 1736, 1736, 1736, 1736, 1736, 1736, 1736, 1736, 1736, 1736, 1736, 1736, 1736, 1736, 1736, 1736, 1736, 1736, 1736, 1736, 1736, 1736, 1736, 1736, 1736, 1736, 1736, 1736, 1736, 1736, 1736, 1736, 1736, 1736, 1736, 1736, 1736, 1736, 1736, 1736, 1736, 1736, 1736, 1736, 1736, 1736, 1736, 1736, 1736, 1736, 1736, 1736, 1736, 1736, 1736, 1736, 1736, 1736, 1736, 1736, 1736, 1736, 1736, 1736, 1736, 1736, 1736, 1736, 1736, 1736, 1736, 1736, 1736, 1736, 1736, 1736, 1736, 1736, 1736, 1736, 1736, 1736, 1736, 1736, 1736, 1736, 1736, 1736, 1736, 1736, 1736, 1736, 1736, 1736, 1736, 1736, 1736, 1736, 1736, 1736, 1736, 1736, 1736, 1736, 1736, 1736, 1736, 1736, 1736, 1736, 1736, 1736, 1736, 1736, 1736, 1736, 1736, 1736, 1736, 1736, 1736, 1736, 1736, 1736, 1736, 1736, 1736, 1736, 1736, 1736, 1736, 1736, 1736, 1736, 1736, 1736, 1736, 1736, 1736, 1736, 1736, 1736, 1736, 1736, 1736, 1736, 1736, 1736, 1736, 1736, 1736, 1736, 1736, 1736, 1736, 1736, 1736, 1736, 1736, 1736, 1736, 1736, 1736, 1736, 1736, 1736, 1736, 1736, 1736, 1736, 1736, 1736, 1736, 1736, 1736, 1736, 1736, 1736, 1736, 1736, 1736, 1736, 1736, 1736, 1736, 1736, 1736, 1736, 1736, 1736, 1736, 1736, 1736, 1736, 1736, 1736, 1736, 1736, 1736, 1736, 1736, 1736, 1736, 1736, 1736, 1736, 1736, 1736, 1736, 1736, 1736, 1736, 1736, 1736, 1736, 1736, 1736, 1736, 1736, 1736, 1736, 1736, 1736, 1736, 1736, 1736, 1736, 1736, 1736, 1736, 1736, 1736, 1736, 1736, 1736, 1736, 1736, 1736, 1736, 1736, 1736, 1736, 1736, 1736, 1736, 1736, 1736, 1736, 1736, 1736, 1736, 1736, 1736, 1736, 1736, 1736, 1736, 1736, 1736, 1736, 1736, 1736, 1736, 1736, 1736, 1736, 1736, 1736, 1736, 1736, 1736, 1736, 1736, 1736, 1736, 1736, 1736, 1736, 1736, 1736, 1736, 1736, 1736, 1736, 1736, 1736, 1736, 1736, 1736, 1736, 1736, 1736, 1736, 1736, 1736, 1736, 1736, 1736, 1736, 1736, 1736, 1736, 1736, 1736, 1736, 1736, 1736, 1736, 1736, 1736, 1736, 1736, 1736, 1736, 1736, 1736, 1736, 1736, 1736, 1736, 1736, 1736, 1736, 1736, 1736, 1736, 1736, 1736, 1736, 1736, 1736, 1736, 1736, 1736, 1736, 1736, 1736, 1736, 1736, 1736, 1736, 1736, 1736, 1736, 1736, 1736, 1736, 1736, 1736, 1736, 1736, 1736, 1736, 1736, 1736, 1736, 1736, 1736, 1736, 1736, 1736, 1736, 1736, 1735, 1735, 1734, 1731, 1727, 1725, 1723, 1718, 1717, 1714, 1714, 1713, 1713, 1711, 1711, 1711, 1711, 1711, 1711, 1711, 1711, 1711, 1711, 1711, 1711, 1711, 1711, 1711, 1711, 1711, 1711, 1711, 1711, 1711, 1711, 1711, 1711, 1711, 1711, 1711, 1711, 1711, 1711, 1711, 1711, 1711, 1711, 1711, 1711, 1711, 1711, 1711, 1711, 1711, 1711, 1711, 1711, 1711, 1711, 1711, 1711, 1711, 1711, 1711, 1711, 1711, 1711, 1711, 1711, 1711, 1711, 1711, 1711, 1711, 1711, 1711, 1711, 1711, 1711, 1711, 1711, 1711, 1711, 1711, 1711, 1711, 1711, 1711, 1711]","[1010, 1010, 1010, 1010, 1011, 1011, 1011, 1011, 1011, 1011, 1011, 1011, 1011, 1011, 1011, 1011, 1011, 1011, 1008, 1005, 1001, 995, 976, 968, 956, 944, 920, 908, 898, 890, 867, 854, 838, 826, 801, 787, 774, 764, 745, 735, 725, 716, 696, 687, 677, 670, 657, 650, 641, 636, 625, 619, 613, 606, 592, 583, 577, 567, 551, 545, 536, 528, 510, 499, 490, 481, 459, 447, 435, 426, 404, 396, 385, 376, 358, 350, 340, 334, 317, 310, 302, 295, 280, 274, 269, 264, 254, 250, 247, 242, 232, 227, 222, 218, 211, 207, 203, 199, 192, 187, 183, 176, 165, 161, 157, 152, 141, 136, 132, 128, 121, 117, 115, 113, 110, 108, 108, 105, 105, 105, 105, 105, 105, 105, 105, 105, 105, 105, 105, 105, 105, 105, 105, 105, 105, 105, 105, 105, 105, 105, 105, 105, 105, 105, 105, 105, 105, 105, 105, 105, 105, 105, 105, 105, 105, 105, 105, 105, 105, 105, 105, 105, 105, 105, 105, 105, 105, 105, 105, 105, 105, 105, 105, 105, 105, 105, 105, 105, 105, 105, 105, 105, 105, 105, 105, 105, 105, 105, 105, 105, 105, 105, 105, 105, 105, 105, 105, 105, 105, 105, 105, 105, 105, 105, 105, 105, 105, 105, 105, 105, 105, 105, 105, 105, 105, 105, 105, 105, 105, 105, 105, 105, 105, 105, 105, 105, 105, 105, 105, 105, 105, 105, 105, 105, 105, 105, 105, 105, 105, 105, 105, 105, 105, 105, 105, 105, 105, 105, 105, 105, 105, 105, 105, 105, 105, 105, 105, 105, 105, 105, 105, 105, 105, 105, 105, 105, 105, 105, 105, 105, 105, 105, 105, 105, 105, 105, 105, 105, 105, 105, 105, 105, 105, 105, 105, 105, 105, 105, 105, 105, 105, 105, 105, 105, 105, 105, 105, 105, 105, 105, 105, 105, 105, 105, 105, 105, 105, 105, 105, 105, 105, 105, 105, 105, 105, 105, 105, 105, 105, 105, 105, 105, 105, 105, 105, 105, 105, 105, 105, 105, 105, 105, 105, 105, 105, 105, 105, 105, 105, 105, 105, 105, 105, 105, 105, 105, 105, 105, 105, 105, 105, 105, 105, 105, 105, 105, 105, 105, 105, 105, 105, 105, 105, 105, 105, 105, 105, 105, 105, 105, 105, 105, 105, 105, 105, 105, 105, 105, 105, 105, 105, 105, 105, 105, 105, 105, 105, 105, 105, 105, 105, 105, 105, 105, 105, 105, 105, 105, 105, 105, 105, 105, 105, 105, 105, 105, 105, 105, 105, 105, 105, 105, 105, 105, 105, 105, 105, 105, 105, 105, 105, 105, 105, 105, 105, 105, 105, 105, 105, 105, 105, 105, 105, 105, 105, 105, 105, 105, 105, 105, 105, 105, 105, 105, 105, 105, 105, 105, 105, 105, 105, 105, 105, 105, 105, 105, 105, 105, 105, 105, 105, 105, 105, 105, 105, 105, 105, 105, 105, 105, 105, 105, 105, 105, 105, 105, 105, 105, 105, 105, 105, 105, 105, 105, 105, 105, 105, 105, 105, 105, 105, 105, 105, 105, 105, 105, 105, 105, 105, 105, 105, 105, 105, 105, 105, 105, 105, 105, 105, 105, 105, 105, 105, 105, 105, 105, 105, 105, 105, 105, 105, 105, 105, 105, 105, 105, 105, 105, 105, 105, 105, 105, 105, 105, 105, 105, 105, 105, 105, 105, 105, 105, 105, 105, 105, 105, 105, 105, 105, 105, 105, 105, 105, 105, 105, 105, 105, 105, 105, 105, 105, 105, 105, 105, 105, 105, 105, 105, 105, 105, 105, 105, 105, 105, 105, 105, 105, 105, 105, 105, 105, 105, 105, 105, 105, 105, 105, 105, 105, 105, 105, 105, 105, 105, 105, 105, 105, 105, 105, 105, 105, 105, 105, 105, 105, 105, 105, 105, 105, 105, 105, 105, 105, 105, 105, 105, 105, 105, 105, 105, 105, 105, 105, 105, 105, 105, 105, 105, 105, 105, 105, 105, 105, 105, 105, 105, 105, 105, 105, 105, 105, 105, 105, 105, 105, 105, 105, 105, 105, 105, 105, 105, 105, 105, 105, 105, 105, 105, 105, 105, 105, 105, 105, 105, 105, 105, 105, 105, 105, 105, 105, 105, 105, 105, 105, 105, 105, 105, 105, 105, 105, 105, 105, 105, 105, 105, 105, 105, 105, 105, 105, 105, 105, 105, 105, 105, 105, 105, 105, 105, 105, 105, 105, 105, 105, 105, 105, 105, 105, 105, 105, 105, 105, 105, 105, 105, 105, 105, 105, 105, 105, 105, 105, 105, 105, 105, 105, 105, 105, 105, 105, 105, 105, 105, 105, 105, 105, 105, 105, 105, 105, 105, 105, 105, 105, 105, 105, 105, 105, 105, 105, 105, 105, 105, 105, 105, 105, 105, 105, 105, 105, 105, 105, 105, 105, 105, 105, 105, 105, 105, 105, 105, 105, 105, 105, 105, 105, 105, 105, 105, 105, 105, 105, 105, 105, 105, 105, 105, 105, 105, 105, 105, 105, 105, 105, 105, 105, 105, 105, 105]"
"Promise","Wie oft werden Sie die Hälfte zurückgeben?","Promise","1","undefined","5","0","2","60","1080","281","10","1","1246","0","legacy","[11, 21, 31, 41, 51, 61, 71, 81, 91, 101, 111, 121, 131, 141, 151, 161, 171, 181, 191, 201, 211, 221, 231, 241, 251, 261, 271, 281, 291, 301, 311, 321, 331, 341, 351, 361, 371, 381, 391, 401, 411, 421, 431, 441, 451, 461, 471, 481, 491, 501, 511, 521, 531, 541, 551, 561, 571, 581, 591, 601, 611, 621, 631, 641, 651, 661, 671, 681, 691, 701, 711, 721, 731, 741, 751, 761, 771, 781, 791, 801, 811, 821, 831, 841, 851, 861, 871, 881, 891, 901, 911, 921, 931, 941, 951, 961, 971, 981, 991, 1001, 1011, 1021, 1031, 1041, 1051, 1061, 1071, 1081, 1091, 1101, 1111, 1121, 1131, 1141, 1151, 1161, 1171, 1181, 1191, 1201, 1211, 1221, 1231, 1241]","1078","1920","[960, 960, 960, 960, 960, 960, 960, 960, 960, 960, 960, 960, 960, 960, 960, 960, 960, 960, 960, 957, 955, 953, 944, 940, 936, 932, 924, 919, 913, 907, 894, 885, 874, 865, 841, 831, 824, 816, 799, 790, 781, 774, 758, 750, 741, 730, 717, 711, 706, 701, 690, 685, 678, 674, 664, 658, 650, 646, 636, 630, 627, 622, 612, 607, 600, 593, 576, 570, 562, 554, 541, 535, 530, 526, 515, 511, 505, 499, 488, 481, 477, 472, 460, 453, 448, 439, 424, 416, 409, 400, 391, 383, 376, 367, 349, 340, 331, 324, 308, 301, 296, 293, 288, 284, 280, 278, 269, 266, 262, 257, 247, 243, 241, 237, 232, 230, 229, 227, 225, 225, 225, 225, 225, 225]","[1010, 1010, 1010, 1010, 1010, 1010, 1010, 1010, 1010, 1010, 1010, 1010, 1010, 1010, 1010, 1010, 1010, 1010, 1007, 1003, 1000, 995, 982, 974, 968, 960, 943, 932, 920, 908, 881, 867, 851, 837, 803, 791, 779, 768, 744, 731, 715, 705, 683, 671, 661, 649, 632, 626, 620, 611, 597, 591, 583, 576, 560, 552, 543, 534, 519, 509, 505, 496, 478, 469, 461, 450, 430, 422, 413, 403, 388, 380, 372, 367, 353, 345, 339, 333, 318, 311, 306, 300, 287, 282, 277, 270, 260, 254, 250, 242, 232, 226, 220, 213, 200, 194, 188, 183, 173, 168, 164, 161, 154, 151, 148, 146, 136, 132, 128, 124, 116, 115, 112, 109, 104, 102, 101, 100, 99, 99, 99, 99, 99, 99]"
"Trust","Teilnehmer A hat Ihnen 2 Punkte übermittelt.","Payback","0","undefined","6","0","2","60","1080","351","10","2","1501","0","legacy","[11, 21, 31, 41, 51, 61, 71, 81, 91, 101, 111, 121, 131, 141, 151, 161, 171, 181, 191, 201, 211, 221, 231, 241, 251, 261, 271, 281, 291, 301, 311, 321, 331, 341, 351, 361, 371, 381, 391, 401, 411, 421, 431, 441, 451, 461, 471, 481, 491, 501, 511, 521, 531, 541, 551, 561, 571, 581, 591, 601, 611, 621, 631, 641, 651, 661, 671, 681, 691, 701, 711, 721, 731, 741, 751, 761, 771, 781, 791, 801, 811, 821, 831, 841, 851, 861, 871, 881, 891, 901, 911, 921, 931, 941, 951, 961, 971, 981, 991, 1001, 1011, 1021, 1031, 1041, 1051, 1061, 1071, 1081, 1091, 1101, 1111, 1121, 1131, 1141, 1151, 1161, 1171, 1181, 1191, 1201, 1211, 1221, 1231, 1241, 1251, 1261, 1271, 1281, 1291, 1301, 1311, 1321, 1331, 1341, 1351, 1361, 1371, 1381, 1391, 1401, 1411, 1421, 1431, 1441, 1451, 1461, 1471, 1481, 1491, 1501]","1078","1920","[960, 960, 960, 960, 960, 960, 960, 960, 960, 960, 960, 960, 960, 960, 960, 960, 960, 960, 960, 960, 960, 960, 960, 960, 960, 962, 967, 971, 977, 981, 989, 992, 995, 998, 1004, 1005, 1008, 1011, 1016, 1019, 1020, 1020, 1022, 1023, 1026, 1026, 1030, 1034, 1037, 1040, 1049, 1053, 1061, 1067, 1082, 1090, 1098, 1105, 1120, 1128, 1139, 1148, 1163, 1168, 1176, 1183, 1199, 1207, 1214, 1220, 1230, 1234, 1239, 1243, 1251, 1256, 1266, 1274, 1293, 1299, 1303, 1308, 1318, 1324, 1328, 1332, 1343, 1350, 1355, 1361, 1373, 1380, 1385, 1391, 1409, 1415, 1425, 1432, 1448, 1453, 1459, 1466, 1481, 1489, 1496, 1506, 1525, 1534, 1543, 1551, 1566, 1575, 1587, 1596, 1621, 1628, 1637, 1645, 1658, 1666, 1674, 1679, 1694, 1700, 1707, 1712, 1721, 1726, 1730, 1734, 1739, 1742, 1744, 1745, 1749, 1749, 1750, 1752, 1752, 1752, 1752, 1753, 1753, 1753, 1753, 1753, 1753, 1753, 1753, 1753]","[1010, 1010, 1010, 1010, 1010, 1010, 1010, 1010, 1010, 1010, 1010, 1010, 1010, 1010, 1010, 1010, 1010, 1010, 1010, 1010, 1010, 1010, 1010, 1009, 1009, 1007, 1000, 995, 989, 984, 970, 964, 958, 951, 938, 928, 918, 909, 892, 884, 874, 866, 847, 838, 831, 823, 807, 798, 792, 784, 766, 756, 743, 732, 710, 697, 686, 676, 656, 644, 630, 621, 601, 594, 585, 577, 563, 555, 547, 538, 523, 518, 512, 506, 495, 490, 483, 478, 468, 463, 459, 454, 445, 440, 435, 431, 423, 419, 415, 410, 399, 394, 389, 384, 372, 368, 361, 356, 345, 340, 333, 328, 315, 309, 303, 298, 283, 277, 271, 264, 250, 242, 233, 225, 209, 204, 198, 193, 182, 176, 169, 164, 154, 149, 144, 141, 135, 131, 128, 125, 122, 120, 119, 117, 114, 114, 113, 113, 113, 113, 113, 112, 112, 112, 112, 112, 112, 112, 112, 112]"
"NoTrust","Teilnehmer A hat Ihnen keine 2 Punkte übermittelt.","Payback","0","undefined","7","0","2","60","1080","351","0","2","1501","0","legacy","[11, 21, 31, 41, 51, 61, 71, 81, 91, 101, 111, 121, 131, 141, 151, 161, 171, 181, 191, 201, 211, 221, 231, 241, 251, 261, 271, 281, 291, 301, 311, 321, 331, 341, 351, 361, 371, 381, 391, 401, 411, 421, 431, 441, 451, 461, 471, 481, 491, 501, 511, 521, 531, 541, 551, 561, 571, 581, 591, 601, 611, 621, 631, 641, 651, 661, 671, 681, 691, 701, 711, 721, 731, 741, 751, 761, 771, 781, 791, 801, 811, 821, 831, 841, 851, 861, 871, 881, 891, 901, 911, 921, 931, 941, 951, 961, 971, 981, 991, 1001, 1011, 1021, 1031, 1041, 1051, 1061, 1071, 1081, 1091, 1101, 1111, 1121, 1131, 1141, 1151, 1161, 1171, 1181, 1191, 1201, 1211, 1221, 1231, 1241, 1251, 1261, 1271, 1281, 1291, 1301, 1311, 1321, 1331, 1341, 1351, 1361, 1371, 1381, 1391, 1401, 1411, 1421, 1431, 1441, 1451, 1461, 1471, 1481, 1491, 1501]","1078","1920","[960, 960, 960, 960, 960, 960, 960, 960, 960, 960, 960, 960, 960, 960, 960, 960, 960, 960, 960, 960, 960, 960, 960, 960, 960, 962, 967, 971, 977, 981, 989, 992, 995, 998, 1004, 1005, 1008, 1011, 1016, 1019, 1020, 1020, 1022, 1023, 1026, 1026, 1030, 1034, 1037, 1040, 1049, 1053, 1061, 1067, 1082, 1090, 1098, 1105, 1120, 1128, 1139, 1148, 1163, 1168, 1176, 1183, 1199, 1207, 1214, 1220, 1230, 1234, 1239, 1243, 1251, 1256, 1266, 1274, 1293, 1299, 1303, 1308, 1318, 1324, 1328, 1332, 1343, 1350, 1355, 1361, 1373, 1380, 1385, 1391, 1409, 1415, 1425, 1432, 1448, 1453, 1459, 1466, 1481, 1489, 1496, 1506, 1525, 1534, 1543, 1551, 1566, 1575, 1587, 1596, 1621, 1628, 1637, 1645, 1658, 1666, 1674, 1679, 1694, 1700, 1707, 1712, 1721, 1726, 1730, 1734, 1739, 1742, 1744, 1745, 1749, 1749, 1750, 1752, 1752, 1752, 1752, 1753, 1753, 1753, 1753, 1753, 1753, 1753, 1753, 1753]","[1010, 1010, 1010, 1010, 1010, 1010, 1010, 1010, 1010, 1010, 1010, 1010, 1010, 1010, 1010, 1010, 1010, 1010, 1010, 1010, 1010, 1010, 1010, 1009, 1009, 1007, 1000, 995, 989, 984, 970, 964, 958, 951, 938, 928, 918, 909, 892, 884, 874, 866, 847, 838, 831, 823, 807, 798, 792, 784, 766, 756, 743, 732, 710, 697, 686, 676, 656, 644, 630, 621, 601, 594, 585, 577, 563, 555, 547, 538, 523, 518, 512, 506, 495, 490, 483, 478, 468, 463, 459, 454, 445, 440, 435, 431, 423, 419, 415, 410, 399, 394, 389, 384, 372, 368, 361, 356, 345, 340, 333, 328, 315, 309, 303, 298, 283, 277, 271, 264, 250, 242, 233, 225, 209, 204, 198, 193, 182, 176, 169, 164, 154, 149, 144, 141, 135, 131, 128, 125, 122, 120, 119, 117, 114, 114, 113, 113, 113, 113, 113, 112, 112, 112, 112, 112, 112, 112, 112, 112]"
"Trust","Teilnehmer A hat Ihnen 2 Punkte übermittelt.","Payback","0","undefined","8","0","2","60","1080","281","10","2","1231","0","legacy","[11, 21, 31, 41, 51, 61, 71, 81, 91, 101, 111, 121, 131, 141, 151, 161, 171, 181, 191, 201, 211, 221, 231, 241, 251, 261, 271, 281, 291, 301, 311, 321, 331, 341, 351, 361, 371, 381, 391, 401, 411, 421, 431, 441, 451, 461, 471, 481, 491, 501, 511, 521, 531, 541, 551, 561, 571, 581, 591, 601, 611, 621, 631, 641, 651, 661, 671, 681, 691, 701, 711, 721, 731, 741, 751, 761, 771, 781, 791, 801, 811, 821, 831, 841, 851, 861, 871, 881, 891, 901, 911, 921, 931, 941, 951, 961, 971, 981, 991, 1001, 1011, 1021, 1031, 1041, 1051, 1061, 1071, 1081, 1091, 1101, 1111, 1121, 1131, 1141, 1151, 1161, 1171, 1181, 1191, 1201, 1211, 1221, 1231]","1078","1920","[960, 960, 960, 960, 960, 960, 960, 960, 960, 960, 960, 960, 960, 960, 960, 960, 960, 960, 960, 960, 962, 964, 968, 975, 979, 986, 991, 1006, 1014, 1020, 1029, 1043, 1049, 1056, 1062, 1071, 1078, 1082, 1088, 1097, 1102, 1106, 1111, 1122, 1128, 1134, 1141, 1154, 1163, 1169, 1177, 1195, 1205, 1216, 1227, 1245, 1252, 1259, 1267, 1283, 1291, 1299, 1306, 1322, 1333, 1340, 1348, 1367, 1376, 1385, 1394, 1406, 1414, 1422, 1429, 1448, 1456, 1466, 1474, 1489, 1496, 1505, 1517, 1538, 1548, 1560, 1567, 1588, 1598, 1611, 1625, 1645, 1654, 1663, 1671, 1686, 1693, 1701, 1706, 1713, 1715, 1717, 1719, 1721, 1722, 1727, 1727, 1730, 1731, 1733, 1733, 1734, 1734, 1736, 1736, 1737, 1738, 1738, 1738, 1738, 1738, 1738, 1738]","[1010, 1010, 1010, 1010, 1010, 1010, 1010, 1010, 1010, 1010, 1010, 1010, 1010, 1010, 1010, 1010, 1010, 1010, 1010, 1007, 1001, 998, 992, 976, 966, 956, 948, 929, 920, 911, 905, 886, 875, 865, 856, 837, 824, 815, 805, 787, 781, 772, 764, 745, 735, 725, 713, 689, 677, 667, 657, 633, 623, 611, 597, 574, 564, 555, 542, 522, 510, 500, 488, 468, 456, 448, 440, 422, 413, 407, 400, 386, 376, 368, 362, 346, 340, 334, 328, 315, 309, 301, 295, 279, 273, 268, 261, 247, 240, 233, 224, 210, 204, 197, 189, 177, 172, 168, 164, 159, 157, 156, 154, 152, 151, 148, 148, 146, 145, 144, 144, 144, 143, 141, 141, 140, 140, 140, 140, 140, 140, 140, 140]"
"Promise","Wie oft werden Sie die Hälfte zurückgeben?","Promise","1","undefined","8","0","3","60","1080","301","10","1","1152","0","legacy","[11, 21, 31, 41, 51, 61, 71, 81, 91, 101, 111, 121, 131, 141, 151, 161, 171, 181, 191, 201, 211, 221, 231, 241, 251, 261, 271, 281, 291, 301, 311, 321, 331, 341, 351, 361, 371, 381, 391, 401, 411, 421, 431, 441, 451, 461, 471, 481, 491, 501, 511, 521, 531, 541, 551, 561, 571, 581, 591, 601, 611, 621, 631, 641, 651, 661, 671, 681, 691, 701, 711, 721, 731, 741, 751, 761, 771, 781, 791, 801, 811, 821, 831, 841, 851, 861, 871, 881, 891, 901, 911, 921, 931, 941, 951, 961, 971, 981, 991, 1001, 1011, 1021, 1031, 1041, 1051, 1061, 1071, 1081, 1091, 1101, 1111, 1121, 1131, 1141, 1151]","1078","1920","[960, 960, 960, 960, 960, 960, 960, 960, 960, 960, 960, 960, 960, 960, 960, 960, 960, 960, 960, 960, 960, 958, 957, 953, 952, 948, 948, 942, 940, 937, 936, 929, 926, 921, 919, 912, 907, 903, 900, 892, 889, 884, 878, 867, 858, 853, 847, 833, 828, 820, 814, 801, 793, 787, 776, 756, 747, 735, 723, 698, 689, 677, 663, 642, 632, 622, 611, 595, 587, 578, 572, 559, 553, 547, 539, 523, 515, 505, 495, 474, 464, 453, 446, 433, 428, 421, 417, 403, 396, 386, 376, 352, 339, 325, 313, 290, 277, 267, 257, 246, 242, 238, 236, 231, 228, 228, 228, 227, 227, 227, 227, 227, 227, 227, 227]","[1010, 1010, 1010, 1010, 1010, 1010, 1010, 1010, 1010, 1010, 1010, 1010, 1010, 1010, 1010, 1010, 1010, 1010, 1010, 1010, 1010, 1007, 1003, 991, 985, 975, 970, 952, 943, 932, 922, 900, 889, 876, 865, 840, 827, 813, 801, 776, 762, 746, 731, 701, 683, 668, 651, 618, 605, 590, 573, 544, 528, 510, 491, 461, 444, 425, 406, 369, 359, 343, 328, 307, 296, 288, 280, 265, 259, 253, 249, 241, 239, 235, 232, 226, 223, 220, 218, 214, 212, 211, 210, 206, 205, 202, 201, 197, 195, 191, 189, 179, 173, 168, 162, 155, 150, 146, 143, 138, 136, 134, 133, 131, 130, 130, 129, 128, 128, 128, 128, 128, 128, 128, 128]"
"Trust","Teilnehmer A hat Ihnen 2 Punkte übermittelt.","Payback","0","undefined","9","0","3","60","1080","291","10","2","1308","0","legacy","[11, 21, 31, 41, 51, 61, 71, 81, 91, 101, 111, 121, 131, 141, 151, 161, 171, 181, 191, 201, 211, 221, 231, 241, 251, 261, 271, 281, 291, 301, 311, 321, 331, 341, 351, 361, 371, 381, 391, 401, 411, 421, 431, 441, 451, 461, 471, 481, 491, 501, 511, 521, 531, 541, 551, 561, 571, 581, 591, 601, 611, 621, 631, 641, 651, 661, 671, 681, 691, 701, 711, 721, 731, 741, 751, 761, 771, 781, 791, 801, 811, 821, 831, 841, 851, 861, 871, 881, 891, 901, 911, 921, 931, 941, 951, 961, 971, 981, 991, 1001, 1011, 1021, 1031, 1041, 1051, 1061, 1071, 1081, 1091, 1101, 1111, 1121, 1131, 1141, 1151, 1161, 1171, 1181, 1191, 1201, 1211, 1221, 1231, 1241, 1251, 1261, 1271, 1281, 1291, 1301]","1078","1920","[960, 960, 960, 960, 960, 960, 960, 960, 960, 960, 960, 960, 960, 960, 960, 960, 960, 960, 960, 960, 960, 960, 960, 961, 963, 967, 972, 976, 979, 988, 990, 993, 995, 1001, 1005, 1009, 1012, 1021, 1023, 1026, 1030, 1035, 1037, 1041, 1042, 1048, 1053, 1056, 1059, 1069, 1074, 1078, 1085, 1102, 1111, 1123, 1132, 1150, 1158, 1165, 1173, 1190, 1199, 1212, 1229, 1260, 1272, 1284, 1294, 1312, 1319, 1328, 1337, 1364, 1380, 1398, 1414, 1440, 1453, 1460, 1473, 1496, 1505, 1516, 1528, 1545, 1553, 1562, 1571, 1587, 1597, 1607, 1616, 1629, 1635, 1642, 1649, 1661, 1666, 1673, 1677, 1687, 1691, 1696, 1699, 1705, 1707, 1709, 1712, 1716, 1716, 1718, 1720, 1723, 1725, 1726, 1728, 1729, 1730, 1730, 1731, 1732, 1732, 1732, 1732, 1732, 1732, 1732, 1732, 1732]","[1010, 1010, 1010, 1010, 1010, 1010, 1010, 1010, 1010, 1010, 1010, 1010, 1010, 1010, 1010, 1010, 1010, 1010, 1009, 1005, 1001, 993, 989, 982, 974, 963, 953, 945, 938, 922, 911, 901, 892, 871, 860, 849, 839, 822, 816, 808, 800, 789, 783, 776, 770, 755, 747, 738, 729, 709, 698, 688, 678, 654, 642, 629, 619, 595, 584, 572, 562, 538, 529, 517, 502, 476, 466, 455, 445, 428, 420, 411, 402, 380, 368, 355, 344, 326, 319, 313, 304, 291, 284, 277, 270, 259, 254, 248, 242, 232, 226, 221, 216, 208, 204, 200, 194, 186, 182, 178, 174, 166, 165, 161, 158, 154, 152, 150, 148, 145, 144, 142, 141, 137, 136, 135, 133, 132, 131, 131, 130, 129, 129, 129, 129, 129, 129, 129, 129, 129]"
"Trust","Teilnehmer A hat Ihnen 2 Punkte übermittelt.","Payback","0","undefined","10","0","3","60","1080","271","10","2","1900","0","legacy","[11, 21, 31, 41, 51, 61, 71, 81, 91, 101, 111, 121, 131, 141, 151, 161, 171, 181, 191, 201, 211, 221, 231, 241, 251, 261, 271, 281, 291, 301, 311, 321, 331, 341, 351, 361, 371, 381, 391, 401, 411, 421, 431, 441, 451, 461, 471, 481, 491, 501, 511, 521, 531, 541, 551, 561, 571, 581, 591, 601, 611, 621, 631, 641, 651, 661, 671, 681, 691, 701, 711, 721, 731, 741, 751, 761, 771, 781, 791, 801, 811, 821, 831, 841, 851, 861, 871, 881, 891, 901, 911, 921, 931, 941, 951, 961, 971, 981, 991, 1001, 1011, 1021, 1031, 1041, 1051, 1061, 1071, 1081, 1091, 1101, 1111, 1121, 1131, 1141, 1151, 1161, 1171, 1181, 1191, 1201, 1211, 1221, 1231, 1241, 1251, 1261, 1271, 1281, 1291, 1301, 1311, 1321, 1331, 1341, 1351, 1361, 1371, 1381, 1391, 1401, 1411, 1421, 1431, 1441, 1451, 1461, 1471, 1481, 1491, 1501, 1511, 1521, 1531, 1541, 1551, 1561, 1571, 1581, 1591, 1601, 1611, 1621, 1631, 1641, 1651, 1661, 1671, 1681, 1691, 1701, 1711, 1721, 1731, 1741, 1751, 1761, 1771, 1781, 1791, 1801, 1811, 1821, 1831, 1841, 1851, 1861, 1871, 1881, 1891]","1078","1920","[960, 960, 960, 960, 960, 960, 960, 960, 960, 960, 960, 960, 960, 960, 960, 960, 960, 960, 960, 961, 962, 966, 970, 976, 981, 994, 999, 1004, 1009, 1018, 1024, 1033, 1040, 1056, 1065, 1071, 1078, 1091, 1098, 1104, 1111, 1125, 1131, 1138, 1142, 1154, 1160, 1165, 1172, 1185, 1193, 1203, 1210, 1225, 1233, 1239, 1247, 1261, 1269, 1275, 1283, 1305, 1313, 1319, 1326, 1343, 1351, 1357, 1364, 1382, 1388, 1395, 1403, 1415, 1422, 1428, 1436, 1451, 1457, 1465, 1471, 1488, 1494, 1501, 1508, 1521, 1529, 1539, 1551, 1571, 1581, 1591, 1599, 1613, 1620, 1626, 1633, 1645, 1652, 1659, 1665, 1677, 1680, 1684, 1687, 1692, 1693, 1694, 1695, 1696, 1696, 1697, 1697, 1698, 1698, 1698, 1698, 1698, 1698, 1698, 1698, 1698, 1698, 1698, 1698, 1698, 1698, 1698, 1698, 1698, 1698, 1698, 1698, 1698, 1698, 1698, 1698, 1698, 1698, 1698, 1698, 1698, 1698, 1698, 1698, 1698, 1698, 1698, 1698, 1698, 1698, 1698, 1698, 1698, 1698, 1698, 1698, 1698, 1698, 1698, 1698, 1698, 1698, 1698, 1698, 1698, 1698, 1698, 1698, 1698, 1698, 1698, 1698, 1698, 1698, 1698, 1698, 1698, 1698, 1698, 1698, 1698, 1698, 1698, 1698, 1698, 1698, 1698, 1698]","[1010, 1010, 1010, 1010, 1010, 1010, 1010, 1010, 1010, 1010, 1010, 1010, 1010, 1010, 1010, 1010, 1010, 1010, 1009, 1005, 1002, 991, 984, 975, 966, 947, 936, 927, 917, 896, 885, 869, 856, 833, 819, 809, 797, 777, 768, 759, 751, 729, 720, 710, 704, 686, 680, 671, 662, 646, 637, 623, 613, 594, 585, 575, 566, 544, 535, 524, 513, 487, 476, 468, 457, 435, 423, 413, 404, 383, 372, 362, 354, 336, 328, 319, 310, 293, 285, 278, 269, 253, 247, 242, 234, 221, 216, 209, 200, 187, 181, 174, 167, 157, 151, 147, 143, 134, 128, 125, 122, 115, 114, 111, 109, 106, 106, 106, 105, 103, 103, 103, 102, 102, 102, 102, 102, 102, 102, 102, 102, 102, 102, 102, 102, 102, 102, 102, 102, 102, 102, 102, 102, 102, 102, 102, 102, 102, 102, 102, 102, 102, 102, 102, 102, 102, 102, 102, 102, 102, 102, 102, 102, 102, 102, 102, 102, 102, 102, 102, 102, 102, 102, 102, 102, 102, 102, 102, 102, 102, 102, 102, 102, 102, 102, 102, 102, 102, 102, 102, 102, 102, 102, 102, 102, 102, 102, 102, 102]"
"Trust","Teilnehmer A hat Ihnen 2 Punkte übermittelt.","Payback","0","undefined","11","0","3","60","1080","271","10","2","1358","0","legacy","[11, 21, 31, 41, 51, 61, 71, 81, 91, 101, 111, 121, 131, 141, 151, 161, 171, 181, 191, 201, 211, 221, 231, 241, 251, 261, 271, 281, 291, 301, 311, 321, 331, 341, 351, 361, 371, 381, 391, 401, 411, 421, 431, 441, 451, 461, 471, 481, 491, 501, 511, 521, 531, 541, 551, 561, 571, 581, 591, 601, 611, 621, 631, 641, 651, 661, 671, 681, 691, 701, 711, 721, 731, 741, 751, 761, 771, 781, 791, 801, 811, 821, 831, 841, 851, 861, 871, 881, 891, 901, 911, 921, 931, 941, 951, 961, 971, 981, 991, 1001, 1011, 1021, 1031, 1041, 1051, 1061, 1071, 1081, 1091, 1101, 1111, 1121, 1131, 1141, 1151, 1161, 1171, 1181, 1191, 1201, 1211, 1221, 1231, 1241, 1251, 1261, 1271, 1281, 1291, 1301, 1311, 1321, 1331, 1341, 1351]","1078","1920","[960, 960, 960, 960, 960, 960, 960, 960, 960, 960, 960, 960, 960, 960, 960, 960, 961, 961, 964, 965, 968, 970, 976, 982, 987, 996, 1015, 1025, 1034, 1042, 1057, 1067, 1072, 1082, 1111, 1124, 1136, 1153, 1179, 1191, 1200, 1212, 1237, 1252, 1264, 1274, 1294, 1303, 1311, 1319, 1340, 1353, 1363, 1371, 1391, 1399, 1407, 1415, 1432, 1441, 1450, 1460, 1477, 1484, 1491, 1498, 1512, 1520, 1526, 1533, 1544, 1549, 1555, 1560, 1571, 1576, 1582, 1587, 1600, 1606, 1613, 1619, 1633, 1639, 1646, 1655, 1666, 1674, 1682, 1688, 1702, 1709, 1714, 1719, 1731, 1737, 1741, 1746, 1755, 1757, 1761, 1765, 1772, 1775, 1779, 1781, 1785, 1785, 1787, 1787, 1787, 1787, 1787, 1787, 1787, 1787, 1787, 1787, 1787, 1787, 1787, 1787, 1787, 1787, 1787, 1787, 1787, 1787, 1787, 1787, 1787, 1787, 1787, 1787, 1787]","[1010, 1010, 1010, 1010, 1010, 1010, 1010, 1010, 1010, 1010, 1010, 1010, 1010, 1010, 1010, 1010, 1010, 1010, 1006, 1003, 999, 996, 983, 977, 971, 961, 938, 928, 915, 904, 880, 866, 861, 847, 816, 801, 786, 773, 747, 735, 724, 712, 684, 669, 658, 649, 628, 618, 610, 600, 578, 564, 555, 543, 521, 512, 502, 493, 474, 463, 454, 445, 429, 422, 415, 408, 394, 386, 381, 376, 364, 359, 352, 347, 334, 330, 325, 321, 309, 304, 298, 291, 277, 271, 264, 255, 242, 234, 225, 220, 207, 200, 195, 190, 178, 171, 166, 160, 151, 148, 143, 139, 131, 127, 122, 120, 115, 114, 113, 112, 112, 112, 112, 112, 112, 112, 112, 112, 112, 112, 112, 112, 112, 112, 112, 112, 112, 112, 112, 112, 112, 112, 112, 112, 112]"
"Promise","Wie oft werden Sie die Hälfte zurückgeben?","Promise","1","undefined","11","0","4","60","1080","251","10","1","1144","0","legacy","[11, 21, 31, 41, 51, 61, 71, 81, 91, 101, 111, 121, 131, 141, 151, 161, 171, 181, 191, 201, 211, 221, 231, 241, 251, 261, 271, 281, 291, 301, 311, 321, 331, 341, 351, 361, 371, 381, 391, 401, 411, 421, 431, 441, 451, 461, 471, 481, 491, 501, 511, 521, 531, 541, 551, 561, 571, 581, 591, 601, 611, 621, 631, 641, 651, 661, 671, 681, 691, 701, 711, 721, 731, 741, 751, 761, 771, 781, 791, 801, 811, 821, 831, 841, 851, 861, 871, 881, 891, 901, 911, 921, 931, 941, 951, 961, 971, 981, 991, 1001, 1011, 1021, 1031, 1041, 1051, 1061, 1071, 1081, 1091, 1101, 1111, 1121, 1131, 1141]","1078","1920","[960, 960, 960, 960, 960, 960, 960, 960, 960, 960, 960, 960, 960, 960, 960, 960, 960, 960, 960, 956, 951, 947, 942, 933, 925, 915, 903, 871, 857, 841, 828, 800, 782, 769, 750, 724, 708, 695, 681, 657, 644, 634, 624, 600, 589, 575, 564, 545, 535, 526, 517, 500, 490, 480, 467, 441, 431, 420, 409, 394, 385, 380, 374, 368, 363, 361, 356, 348, 345, 344, 340, 332, 329, 327, 322, 313, 309, 300, 293, 278, 272, 266, 261, 251, 249, 245, 242, 238, 235, 232, 229, 222, 221, 219, 216, 212, 209, 207, 206, 203, 201, 200, 200, 199, 198, 196, 196, 196, 196, 196, 196, 196, 196, 196]","[1010, 1010, 1010, 1010, 1010, 1010, 1010, 1010, 1010, 1010, 1010, 1010, 1010, 1010, 1010, 1010, 1010, 1010, 1007, 995, 986, 976, 966, 942, 924, 905, 881, 829, 804, 777, 751, 702, 676, 652, 627, 585, 563, 545, 526, 492, 474, 460, 448, 414, 401, 386, 375, 356, 345, 335, 326, 310, 304, 296, 287, 276, 269, 263, 259, 250, 246, 244, 241, 238, 237, 235, 234, 231, 229, 227, 227, 223, 221, 219, 217, 212, 209, 204, 201, 192, 188, 182, 180, 172, 169, 166, 163, 158, 156, 152, 151, 145, 143, 142, 140, 137, 136, 134, 133, 131, 130, 129, 129, 128, 126, 126, 126, 125, 125, 125, 125, 125, 125, 125]"
"Trust","Teilnehmer A hat Ihnen 2 Punkte übermittelt.","Payback","0","undefined","12","0","4","60","1080","311","10","2","1124","0","legacy","[11, 21, 31, 41, 51, 61, 71, 81, 91, 101, 111, 121, 131, 141, 151, 161, 171, 181, 191, 201, 211, 221, 231, 241, 251, 261, 271, 281, 291, 301, 311, 321, 331, 341, 351, 361, 371, 381, 391, 401, 411, 421, 431, 441, 451, 461, 471, 481, 491, 501, 511, 521, 531, 541, 551, 561, 571, 581, 591, 601, 611, 621, 631, 641, 651, 661, 671, 681, 691, 701, 711, 721, 731, 741, 751, 761, 771, 781, 791, 801, 811, 821, 831, 841, 851, 861, 871, 881, 891, 901, 911, 921, 931, 941, 951, 961, 971, 981, 991, 1001, 1011, 1021, 1031, 1041, 1051, 1061, 1071, 1081, 1091, 1101, 1111, 1121]","1078","1920","[960, 960, 960, 960, 960, 960, 960, 960, 960, 960, 960, 960, 960, 960, 960, 960, 960, 960, 960, 960, 960, 964, 967, 971, 975, 984, 989, 993, 999, 1008, 1012, 1018, 1023, 1039, 1046, 1054, 1059, 1071, 1076, 1083, 1087, 1099, 1106, 1116, 1124, 1139, 1143, 1149, 1156, 1167, 1173, 1178, 1184, 1197, 1203, 1211, 1218, 1231, 1238, 1243, 1253, 1266, 1272, 1277, 1283, 1293, 1298, 1303, 1308, 1318, 1325, 1331, 1338, 1351, 1359, 1365, 1375, 1389, 1398, 1407, 1416, 1434, 1445, 1457, 1474, 1514, 1536, 1545, 1565, 1599, 1615, 1626, 1640, 1657, 1666, 1673, 1680, 1695, 1704, 1714, 1725, 1744, 1753, 1758, 1764, 1767, 1767, 1767, 1767, 1767, 1767, 1767]","[1010, 1010, 1010, 1010, 1010, 1010, 1010, 1010, 1010, 1010, 1010, 1010, 1010, 1010, 1010, 1010, 1010, 1010, 1010, 1008, 1005, 996, 992, 986, 982, 971, 963, 960, 953, 942, 936, 928, 922, 907, 899, 891, 886, 874, 866, 856, 847, 828, 817, 805, 791, 771, 763, 752, 741, 722, 713, 704, 694, 674, 662, 649, 638, 616, 605, 593, 581, 561, 552, 544, 532, 512, 505, 496, 488, 471, 462, 456, 445, 428, 419, 410, 401, 383, 375, 366, 356, 338, 329, 318, 303, 276, 259, 252, 239, 217, 207, 199, 188, 172, 166, 160, 154, 143, 138, 131, 125, 115, 111, 109, 106, 105, 105, 105, 105, 105, 105, 105]"
"Trust","Teilnehmer A hat Ihnen 2 Punkte übermittelt.","Payback","0","undefined","13","0","4","60","1080","331","10","2","1341","0","legacy","[11, 21, 31, 41, 51, 61, 71, 81, 91, 101, 111, 121, 131, 141, 151, 161, 171, 181, 191, 201, 211, 221, 231, 241, 251, 261, 271, 281, 291, 301, 311, 321, 331, 341, 351, 361, 371, 381, 391, 401, 411, 421, 431, 441, 451, 461, 471, 481, 491, 501, 511, 521, 531, 541, 551, 561, 571, 581, 591, 601, 611, 621, 631, 641, 651, 661, 671, 681, 691, 701, 711, 721, 731, 741, 751, 761, 771, 781, 791, 801, 811, 821, 831, 841, 851, 861, 871, 881, 891, 901, 911, 921, 931, 941, 951, 961, 971, 981, 991, 1001, 1011, 1021, 1031, 1041, 1051, 1061, 1071, 1081, 1091, 1101, 1111, 1121, 1131, 1141, 1151, 1161, 1171, 1181, 1191, 1201, 1211, 1221, 1231, 1241, 1251, 1261, 1271, 1281, 1291, 1301, 1311, 1321, 1331, 1341]","1078","1920","[960, 960, 960, 960, 960, 960, 960, 960, 960, 960, 960, 960, 960, 960, 960, 960, 960, 960, 960, 960, 960, 960, 960, 960, 960, 960, 962, 963, 966, 967, 968, 970, 971, 971, 973, 973, 977, 978, 982, 983, 983, 984, 988, 991, 994, 995, 1000, 1003, 1008, 1010, 1017, 1020, 1025, 1028, 1038, 1044, 1049, 1053, 1067, 1073, 1081, 1088, 1104, 1109, 1115, 1122, 1138, 1148, 1163, 1172, 1193, 1201, 1208, 1216, 1233, 1242, 1248, 1259, 1278, 1288, 1300, 1311, 1336, 1347, 1360, 1372, 1398, 1414, 1424, 1436, 1460, 1469, 1480, 1490, 1505, 1511, 1518, 1524, 1539, 1546, 1555, 1562, 1575, 1583, 1589, 1596, 1609, 1614, 1621, 1628, 1636, 1643, 1649, 1655, 1670, 1679, 1687, 1697, 1717, 1725, 1730, 1733, 1736, 1736, 1738, 1738, 1738, 1738, 1738, 1738, 1738, 1738, 1738, 1738]","[1010, 1010, 1010, 1010, 1010, 1010, 1010, 1010, 1010, 1010, 1010, 1010, 1010, 1010, 1010, 1010, 1010, 1010, 1010, 1008, 1006, 1004, 999, 996, 993, 987, 978, 973, 964, 960, 950, 942, 935, 930, 914, 908, 898, 889, 874, 868, 862, 855, 840, 831, 821, 814, 794, 785, 772, 762, 741, 729, 716, 704, 678, 666, 654, 643, 617, 604, 589, 576, 545, 532, 521, 509, 482, 468, 450, 440, 416, 402, 392, 382, 361, 352, 344, 332, 317, 309, 299, 292, 275, 268, 261, 254, 240, 232, 228, 222, 212, 210, 204, 200, 193, 190, 188, 184, 179, 176, 173, 168, 162, 159, 157, 154, 151, 148, 147, 145, 142, 139, 137, 136, 132, 129, 127, 123, 121, 120, 118, 118, 116, 116, 115, 115, 115, 115, 115, 115, 115, 115, 115, 115]"
"Trust","Teilnehmer A hat Ihnen 2 Punkte übermittelt.","Payback","0","undefined","14","0","4","60","1080","541","10","2","1685","0","legacy","[11, 21, 31, 41, 51, 61, 71, 81, 91, 101, 111, 121, 131, 141, 151, 161, 171, 181, 191, 201, 211, 221, 231, 241, 251, 261, 271, 281, 291, 301, 311, 321, 331, 341, 351, 361, 371, 381, 391, 401, 411, 421, 431, 441, 451, 461, 471, 481, 491, 501, 511, 521, 531, 541, 551, 561, 571, 581, 591, 601, 611, 621, 631, 641, 651, 661, 671, 681, 691, 701, 711, 721, 731, 741, 751, 761, 771, 781, 791, 801, 811, 821, 831, 841, 851, 861, 871, 881, 891, 901, 911, 921, 931, 941, 951, 961, 971, 981, 991, 1001, 1011, 1021, 1031, 1041, 1051, 1061, 1071, 1081, 1091, 1101, 1111, 1121, 1131, 1141, 1151, 1161, 1171, 1181, 1191, 1201, 1211, 1221, 1231, 1241, 1251, 1261, 1271, 1281, 1291, 1301, 1311, 1321, 1331, 1341, 1351, 1361, 1371, 1381, 1391, 1401, 1411, 1421, 1431, 1441, 1451, 1461, 1471, 1481, 1491, 1501, 1511, 1521, 1531, 1541, 1551, 1561, 1571, 1581, 1591, 1601, 1611, 1621, 1631, 1641, 1651, 1661, 1671, 1681]","1078","1920","[960, 960, 960, 960, 960, 960, 960, 960, 960, 959, 959, 959, 959, 959, 959, 959, 959, 959, 959, 959, 959, 959, 959, 959, 959, 959, 959, 959, 959, 959, 959, 959, 959, 959, 960, 961, 961, 961, 963, 965, 965, 965, 967, 967, 967, 967, 968, 969, 970, 970, 971, 972, 972, 972, 973, 973, 974, 976, 979, 982, 984, 989, 994, 997, 1001, 1004, 1011, 1016, 1019, 1026, 1036, 1040, 1047, 1051, 1061, 1067, 1073, 1079, 1091, 1099, 1109, 1120, 1142, 1151, 1159, 1168, 1186, 1195, 1204, 1213, 1230, 1239, 1253, 1263, 1285, 1295, 1305, 1314, 1328, 1334, 1346, 1352, 1370, 1376, 1382, 1388, 1402, 1408, 1419, 1427, 1442, 1448, 1457, 1467, 1487, 1501, 1513, 1526, 1553, 1561, 1573, 1581, 1596, 1605, 1611, 1617, 1630, 1636, 1642, 1645, 1653, 1657, 1660, 1665, 1672, 1674, 1675, 1680, 1685, 1688, 1691, 1694, 1701, 1703, 1705, 1709, 1715, 1717, 1723, 1725, 1729, 1731, 1733, 1734, 1736, 1736, 1737, 1737, 1738, 1738, 1738, 1738, 1738, 1738, 1738, 1738, 1738, 1738]","[1010, 1010, 1010, 1010, 1010, 1010, 1010, 1010, 1010, 1011, 1011, 1011, 1011, 1011, 1011, 1011, 1011, 1011, 1011, 1011, 1011, 1011, 1011, 1011, 1011, 1011, 1011, 1011, 1011, 1010, 1007, 1006, 1005, 1003, 997, 995, 992, 989, 982, 980, 976, 974, 968, 968, 966, 963, 958, 956, 953, 951, 946, 943, 941, 939, 932, 929, 924, 918, 906, 896, 888, 879, 858, 848, 836, 825, 801, 788, 777, 762, 737, 723, 708, 698, 674, 661, 649, 636, 612, 601, 588, 577, 552, 543, 534, 523, 499, 485, 475, 463, 445, 437, 426, 419, 403, 397, 389, 383, 371, 365, 358, 353, 340, 337, 331, 327, 319, 316, 310, 306, 298, 295, 289, 283, 275, 270, 266, 263, 252, 250, 245, 241, 231, 225, 222, 219, 212, 208, 205, 203, 198, 196, 194, 191, 187, 186, 185, 181, 178, 174, 173, 170, 166, 165, 162, 161, 156, 153, 149, 148, 145, 144, 142, 141, 138, 138, 137, 137, 136, 136, 136, 136, 136, 136, 136, 136, 136, 136]"
"Promise","Wie oft werden Sie die Hälfte zurückgeben?","Promise","1","undefined","14","0","5","60","1080","231","10","1","937","0","legacy","[11, 21, 31, 41, 51, 61, 71, 81, 91, 101, 111, 121, 131, 141, 151, 161, 171, 181, 191, 201, 211, 221, 231, 241, 251, 261, 271, 281, 291, 301, 311, 321, 331, 341, 351, 361, 371, 381, 391, 401, 411, 421, 431, 441, 451, 461, 471, 481, 491, 501, 511, 521, 531, 541, 551, 561, 571, 581, 591, 601, 611, 621, 631, 641, 651, 661, 671, 681, 691, 701, 711, 721, 731, 741, 751, 761, 771, 781, 791, 801, 811, 821, 831, 841, 851, 861, 871, 881, 891, 901, 911, 921, 931]","1078","1920","[960, 960, 960, 960, 960, 960, 960, 960, 960, 960, 960, 960, 959, 959, 957, 956, 955, 950, 947, 945, 935, 929, 921, 908, 881, 866, 852, 842, 824, 815, 809, 801, 785, 775, 766, 757, 736, 727, 722, 716, 708, 703, 698, 695, 684, 676, 669, 657, 641, 629, 622, 612, 597, 587, 581, 573, 550, 538, 525, 505, 465, 451, 434, 419, 397, 388, 380, 370, 352, 335, 321, 300, 259, 239, 225, 207, 188, 178, 174, 169, 166, 164, 162, 162, 161, 161, 161, 161, 161, 161, 161, 161, 161]","[1010, 1010, 1010, 1010, 1010, 1010, 1010, 1010, 1011, 1011, 1011, 1011, 1011, 1011, 1009, 1005, 996, 989, 981, 973, 953, 941, 930, 912, 879, 861, 839, 823, 790, 773, 758, 738, 708, 691, 675, 661, 632, 619, 608, 597, 575, 560, 549, 537, 511, 499, 486, 469, 445, 430, 418, 405, 375, 363, 353, 342, 314, 300, 286, 273, 244, 233, 220, 210, 191, 184, 178, 171, 155, 145, 136, 125, 103, 94, 87, 78, 67, 62, 57, 53, 49, 47, 45, 45, 44, 44, 44, 44, 44, 44, 44, 44, 44]"
"Trust","Teilnehmer A hat Ihnen 2 Punkte übermittelt.","Payback","0","undefined","15","0","5","60","1080","271","10","2","1349","0","legacy","[11, 21, 31, 41, 51, 61, 71, 81, 91, 101, 111, 121, 131, 141, 151, 161, 171, 181, 191, 201, 211, 221, 231, 241, 251, 261, 271, 281, 291, 301, 311, 321, 331, 341, 351, 361, 371, 381, 391, 401, 411, 421, 431, 441, 451, 461, 471, 481, 491, 501, 511, 521, 531, 541, 551, 561, 571, 581, 591, 601, 611, 621, 631, 641, 651, 661, 671, 681, 691, 701, 711, 721, 731, 741, 751, 761, 771, 781, 791, 801, 811, 821, 831, 841, 851, 861, 871, 881, 891, 901, 911, 921, 931, 941, 951, 961, 971, 981, 991, 1001, 1011, 1021, 1031, 1041, 1051, 1061, 1071, 1081, 1091, 1101, 1111, 1121, 1131, 1141, 1151, 1161, 1171, 1181, 1191, 1201, 1211, 1221, 1231, 1241, 1251, 1261, 1271, 1281, 1291, 1301, 1311, 1321, 1331, 1341]","1078","1920","[960, 960, 960, 960, 960, 960, 960, 960, 960, 960, 960, 960, 960, 959, 959, 959, 959, 959, 960, 961, 962, 964, 975, 983, 993, 1006, 1043, 1065, 1084, 1104, 1147, 1165, 1186, 1207, 1241, 1254, 1271, 1279, 1306, 1313, 1323, 1331, 1348, 1355, 1360, 1369, 1379, 1387, 1393, 1399, 1416, 1424, 1434, 1438, 1451, 1456, 1460, 1464, 1472, 1476, 1479, 1481, 1488, 1491, 1496, 1501, 1511, 1516, 1522, 1527, 1538, 1545, 1554, 1561, 1577, 1586, 1594, 1602, 1619, 1626, 1635, 1644, 1656, 1660, 1665, 1669, 1675, 1676, 1680, 1681, 1685, 1686, 1688, 1688, 1692, 1693, 1693, 1694, 1696, 1696, 1696, 1697, 1699, 1699, 1700, 1700, 1701, 1702, 1703, 1703, 1704, 1704, 1704, 1704, 1704, 1704, 1704, 1704, 1704, 1704, 1704, 1704, 1704, 1704, 1704, 1704, 1704, 1704, 1704, 1704, 1704, 1704, 1704, 1704]","[1010, 1011, 1011, 1011, 1011, 1011, 1011, 1011, 1011, 1011, 1011, 1011, 1011, 1012, 1012, 1012, 1012, 1010, 1003, 1002, 999, 994, 980, 975, 966, 952, 910, 884, 865, 842, 792, 767, 741, 713, 667, 650, 627, 613, 581, 569, 556, 544, 519, 508, 497, 483, 462, 450, 440, 429, 404, 392, 379, 371, 351, 345, 339, 332, 324, 319, 315, 313, 304, 299, 294, 289, 280, 276, 273, 268, 259, 253, 248, 244, 233, 227, 222, 216, 204, 200, 195, 189, 179, 176, 171, 167, 161, 160, 156, 155, 151, 150, 148, 148, 145, 145, 145, 144, 142, 142, 142, 141, 140, 140, 139, 139, 138, 136, 136, 136, 135, 135, 135, 135, 135, 135, 135, 135, 135, 135, 135, 135, 135, 135, 135, 135, 135, 135, 135, 135, 135, 135, 135, 135]"
"Trust","Teilnehmer A hat Ihnen 2 Punkte übermittelt.","Payback","0","undefined","16","0","5","60","1080","281","10","2","1310","0","legacy","[11, 21, 31, 41, 51, 61, 71, 81, 91, 101, 111, 121, 131, 141, 151, 161, 171, 181, 191, 201, 211, 221, 231, 241, 251, 261, 271, 281, 291, 301, 311, 321, 331, 341, 351, 361, 371, 381, 391, 401, 411, 421, 431, 441, 451, 461, 471, 481, 491, 501, 511, 521, 531, 541, 551, 561, 571, 581, 591, 601, 611, 621, 631, 641, 651, 661, 671, 681, 691, 701, 711, 721, 731, 741, 751, 761, 771, 781, 791, 801, 811, 821, 831, 841, 851, 861, 871, 881, 891, 901, 911, 921, 931, 941, 951, 961, 971, 981, 991, 1001, 1011, 1021, 1031, 1041, 1051, 1061, 1071, 1081, 1091, 1101, 1111, 1121, 1131, 1141, 1151, 1161, 1171, 1181, 1191, 1201, 1211, 1221, 1231, 1241, 1251, 1261, 1271, 1281, 1291, 1301]","1078","1920","[960, 960, 960, 960, 960, 960, 960, 960, 960, 960, 960, 960, 960, 960, 960, 960, 960, 960, 960, 960, 960, 960, 961, 963, 964, 965, 975, 977, 981, 986, 994, 999, 1005, 1008, 1019, 1026, 1033, 1040, 1052, 1059, 1065, 1074, 1088, 1097, 1106, 1114, 1130, 1138, 1147, 1156, 1177, 1181, 1187, 1190, 1199, 1205, 1211, 1216, 1235, 1243, 1250, 1259, 1273, 1279, 1285, 1290, 1302, 1309, 1316, 1321, 1332, 1337, 1344, 1348, 1358, 1363, 1368, 1374, 1385, 1393, 1398, 1403, 1419, 1425, 1431, 1439, 1459, 1470, 1479, 1487, 1510, 1520, 1529, 1538, 1551, 1560, 1567, 1576, 1589, 1594, 1597, 1600, 1610, 1614, 1623, 1630, 1645, 1651, 1658, 1663, 1671, 1674, 1679, 1682, 1689, 1691, 1694, 1697, 1698, 1700, 1700, 1702, 1704, 1705, 1705, 1705, 1705, 1705, 1705, 1705]","[1010, 1010, 1010, 1010, 1010, 1010, 1010, 1010, 1010, 1010, 1010, 1010, 1010, 1010, 1010, 1010, 1010, 1010, 1007, 1005, 1003, 1001, 991, 985, 975, 966, 941, 932, 922, 911, 885, 868, 849, 836, 807, 796, 784, 773, 752, 742, 733, 722, 700, 687, 673, 663, 640, 628, 616, 605, 573, 562, 550, 539, 517, 506, 494, 482, 455, 444, 433, 424, 405, 396, 387, 380, 361, 352, 343, 333, 317, 312, 304, 298, 288, 283, 279, 274, 264, 258, 254, 250, 239, 236, 230, 227, 218, 213, 210, 204, 193, 189, 184, 180, 173, 168, 164, 161, 154, 152, 149, 148, 144, 143, 138, 136, 131, 128, 126, 124, 122, 120, 118, 117, 114, 113, 111, 110, 109, 108, 108, 107, 107, 106, 106, 106, 106, 106, 106, 106]"
"NoTrust","Teilnehmer A hat Ihnen keine 2 Punkte übermittelt.","Payback","0","undefined","17","0","5","60","1080","281","0","2","1310","0","legacy","[11, 21, 31, 41, 51, 61, 71, 81, 91, 101, 111, 121, 131, 141, 151, 161, 171, 181, 191, 201, 211, 221, 231, 241, 251, 261, 271, 281, 291, 301, 311, 321, 331, 341, 351, 361, 371, 381, 391, 401, 411, 421, 431, 441, 451, 461, 471, 481, 491, 501, 511, 521, 531, 541, 551, 561, 571, 581, 591, 601, 611, 621, 631, 641, 651, 661, 671, 681, 691, 701, 711, 721, 731, 741, 751, 761, 771, 781, 791, 801, 811, 821, 831, 841, 851, 861, 871, 881, 891, 901, 911, 921, 931, 941, 951, 961, 971, 981, 991, 1001, 1011, 1021, 1031, 1041, 1051, 1061, 1071, 1081, 1091, 1101, 1111, 1121, 1131, 1141, 1151, 1161, 1171, 1181, 1191, 1201, 1211, 1221, 1231, 1241, 1251, 1261, 1271, 1281, 1291, 1301]","1078","1920","[960, 960, 960, 960, 960, 960, 960, 960, 960, 960, 960, 960, 960, 960, 960, 960, 960, 960, 960, 960, 960, 960, 961, 963, 964, 965, 975, 977, 981, 986, 994, 999, 1005, 1008, 1019, 1026, 1033, 1040, 1052, 1059, 1065, 1074, 1088, 1097, 1106, 1114, 1130, 1138, 1147, 1156, 1177, 1181, 1187, 1190, 1199, 1205, 1211, 1216, 1235, 1243, 1250, 1259, 1273, 1279, 1285, 1290, 1302, 1309, 1316, 1321, 1332, 1337, 1344, 1348, 1358, 1363, 1368, 1374, 1385, 1393, 1398, 1403, 1419, 1425, 1431, 1439, 1459, 1470, 1479, 1487, 1510, 1520, 1529, 1538, 1551, 1560, 1567, 1576, 1589, 1594, 1597, 1600, 1610, 1614, 1623, 1630, 1645, 1651, 1658, 1663, 1671, 1674, 1679, 1682, 1689, 1691, 1694, 1697, 1698, 1700, 1700, 1702, 1704, 1705, 1705, 1705, 1705, 1705, 1705, 1705]","[1010, 1010, 1010, 1010, 1010, 1010, 1010, 1010, 1010, 1010, 1010, 1010, 1010, 1010, 1010, 1010, 1010, 1010, 1007, 1005, 1003, 1001, 991, 985, 975, 966, 941, 932, 922, 911, 885, 868, 849, 836, 807, 796, 784, 773, 752, 742, 733, 722, 700, 687, 673, 663, 640, 628, 616, 605, 573, 562, 550, 539, 517, 506, 494, 482, 455, 444, 433, 424, 405, 396, 387, 380, 361, 352, 343, 333, 317, 312, 304, 298, 288, 283, 279, 274, 264, 258, 254, 250, 239, 236, 230, 227, 218, 213, 210, 204, 193, 189, 184, 180, 173, 168, 164, 161, 154, 152, 149, 148, 144, 143, 138, 136, 131, 128, 126, 124, 122, 120, 118, 117, 114, 113, 111, 110, 109, 108, 108, 107, 107, 106, 106, 106, 106, 106, 106, 106]"
"Promise","Wie oft werden Sie die Hälfte zurückgeben?","Promise","1","undefined","17","0","6","60","1080","241","0","1","889","0","legacy","[11, 21, 31, 41, 51, 61, 71, 81, 91, 101, 111, 121, 131, 141, 151, 161, 171, 181, 191, 201, 211, 221, 231, 241, 251, 261, 271, 281, 291, 301, 311, 321, 331, 341, 351, 361, 371, 381, 391, 401, 411, 421, 431, 441, 451, 461, 471, 481, 491, 501, 511, 521, 531, 541, 551, 561, 571, 581, 591, 601, 611, 621, 631, 641, 651, 661, 671, 681, 691, 701, 711, 721, 731, 741, 751, 761, 771, 781, 791, 801, 811, 821, 831, 841, 851, 861, 871, 881]","1078","1920","[960, 960, 960, 960, 960, 960, 960, 960, 960, 960, 960, 960, 960, 960, 960, 960, 960, 960, 960, 960, 960, 960, 960, 960, 960, 960, 960, 960, 960, 957, 954, 939, 928, 911, 898, 866, 851, 835, 820, 788, 774, 762, 756, 743, 734, 726, 718, 691, 673, 650, 627, 592, 576, 563, 557, 533, 521, 506, 487, 470, 436, 420, 406, 393, 359, 335, 316, 301, 278, 276, 273, 272, 269, 266, 263, 259, 250, 245, 243, 243, 241, 241, 241, 241, 241, 241, 241, 241]","[1010, 1010, 1010, 1010, 1010, 1010, 1010, 1010, 1010, 1010, 1010, 1010, 1010, 1010, 1010, 1010, 1010, 1007, 1000, 984, 976, 966, 958, 935, 920, 906, 892, 862, 843, 825, 804, 746, 707, 667, 630, 548, 511, 479, 445, 380, 346, 322, 304, 265, 246, 233, 221, 187, 173, 154, 138, 119, 109, 105, 100, 90, 84, 78, 73, 68, 59, 56, 51, 47, 43, 40, 40, 40, 40, 40, 40, 40, 40, 41, 41, 43, 45, 48, 48, 48, 49, 49, 49, 49, 49, 49, 49, 49]"
"Trust","Teilnehmer A hat Ihnen 2 Punkte übermittelt.","Payback","0","undefined","18","0","6","60","1080","251","10","2","742","0","legacy","[11, 21, 31, 41, 51, 61, 71, 81, 91, 101, 111, 121, 131, 141, 151, 161, 171, 181, 191, 201, 211, 221, 231, 241, 251, 261, 271, 281, 291, 301, 311, 321, 331, 341, 351, 361, 371, 381, 391, 401, 411, 421, 431, 441, 451, 461, 471, 481, 491, 501, 511, 521, 531, 541, 551, 561, 571, 581, 591, 601, 611, 621, 631, 641, 651, 661, 671, 681, 691, 701, 711, 721, 731, 741]","1078","1920","[960, 960, 960, 960, 960, 960, 960, 960, 960, 960, 960, 959, 959, 959, 959, 959, 959, 959, 959, 959, 959, 959, 963, 969, 976, 983, 999, 1015, 1031, 1049, 1081, 1095, 1111, 1120, 1150, 1166, 1183, 1208, 1255, 1286, 1309, 1330, 1373, 1391, 1408, 1426, 1465, 1490, 1515, 1536, 1586, 1600, 1611, 1623, 1644, 1654, 1662, 1672, 1686, 1695, 1699, 1705, 1719, 1726, 1730, 1732, 1734, 1734, 1734, 1734, 1734, 1734, 1734, 1734]","[1010, 1010, 1010, 1010, 1010, 1010, 1010, 1010, 1010, 1010, 1010, 1011, 1011, 1011, 1011, 1011, 1011, 1009, 1005, 1001, 995, 986, 962, 942, 919, 899, 861, 829, 799, 766, 704, 667, 640, 614, 553, 526, 496, 460, 400, 365, 337, 308, 259, 236, 218, 199, 167, 148, 133, 123, 91, 83, 77, 69, 61, 57, 56, 52, 49, 47, 47, 46, 44, 43, 42, 42, 42, 42, 42, 42, 42, 42, 42, 42]"
"Trust","Teilnehmer A hat Ihnen 2 Punkte übermittelt.","Payback","0","undefined","19","0","6","60","1080","251","10","2","869","0","legacy","[11, 21, 31, 41, 51, 61, 71, 81, 91, 101, 111, 121, 131, 141, 151, 161, 171, 181, 191, 201, 211, 221, 231, 241, 251, 261, 271, 281, 291, 301, 311, 321, 331, 341, 351, 361, 371, 381, 391, 401, 411, 421, 431, 441, 451, 461, 471, 481, 491, 501, 511, 521, 531, 541, 551, 561, 571, 581, 591, 601, 611, 621, 631, 641, 651, 661, 671, 681, 691, 701, 711, 721, 731, 741, 751, 761, 771, 781, 791, 801, 811, 821, 831, 841, 851, 861]","1078","1920","[960, 960, 960, 960, 960, 960, 960, 960, 960, 960, 960, 960, 960, 960, 960, 960, 960, 960, 966, 969, 971, 975, 981, 986, 992, 1005, 1023, 1028, 1036, 1040, 1052, 1058, 1065, 1073, 1094, 1107, 1120, 1136, 1170, 1197, 1217, 1241, 1296, 1319, 1348, 1369, 1410, 1426, 1445, 1460, 1497, 1508, 1523, 1533, 1555, 1563, 1574, 1582, 1599, 1608, 1619, 1628, 1645, 1653, 1662, 1665, 1674, 1676, 1678, 1679, 1682, 1682, 1682, 1682, 1683, 1683, 1683, 1683, 1683, 1683, 1683, 1683, 1683, 1683, 1683, 1683]","[1010, 1010, 1010, 1010, 1010, 1010, 1010, 1010, 1010, 1010, 1010, 1010, 1010, 1010, 1010, 1010, 1010, 1010, 1006, 1000, 992, 983, 965, 952, 938, 913, 881, 864, 846, 827, 783, 760, 743, 727, 694, 677, 657, 635, 591, 552, 529, 505, 449, 429, 403, 384, 342, 323, 307, 291, 258, 250, 237, 226, 202, 193, 181, 172, 156, 149, 140, 132, 118, 113, 107, 104, 97, 95, 94, 93, 92, 92, 92, 92, 91, 91, 91, 91, 91, 91, 91, 91, 91, 91, 91, 91]"
"Trust","Teilnehmer A hat Ihnen 2 Punkte übermittelt.","Payback","0","undefined","20","0","6","60","1080","271","10","2","1341","0","legacy","[11, 21, 31, 41, 51, 61, 71, 81, 91, 101, 111, 121, 131, 141, 151, 161, 171, 181, 191, 201, 211, 221, 231, 241, 251, 261, 271, 281, 291, 301, 311, 321, 331, 341, 351, 361, 371, 381, 391, 401, 411, 421, 431, 441, 451, 461, 471, 481, 491, 501, 511, 521, 531, 541, 551, 561, 571, 581, 591, 601, 611, 621, 631, 641, 651, 661, 671, 681, 691, 701, 711, 721, 731, 741, 751, 761, 771, 781, 791, 801, 811, 821, 831, 841, 851, 861, 871, 881, 891, 901, 911, 921, 931, 941, 951, 961, 971, 981, 991, 1001, 1011, 1021, 1031, 1041, 1051, 1061, 1071, 1081, 1091, 1101, 1111, 1121, 1131, 1141, 1151, 1161, 1171, 1181, 1191, 1201, 1211, 1221, 1231, 1241, 1251, 1261, 1271, 1281, 1291, 1301, 1311, 1321, 1331, 1341]","1078","1920","[960, 960, 960, 960, 960, 960, 960, 960, 960, 960, 960, 960, 960, 960, 960, 960, 960, 960, 960, 960, 960, 963, 969, 974, 979, 988, 1005, 1014, 1021, 1033, 1055, 1064, 1075, 1087, 1108, 1120, 1137, 1147, 1173, 1186, 1204, 1221, 1249, 1259, 1274, 1288, 1310, 1318, 1329, 1340, 1368, 1380, 1395, 1406, 1425, 1434, 1438, 1444, 1451, 1455, 1458, 1460, 1471, 1477, 1487, 1501, 1532, 1548, 1561, 1572, 1593, 1604, 1612, 1619, 1626, 1628, 1629, 1629, 1629, 1631, 1631, 1631, 1631, 1631, 1631, 1631, 1631, 1631, 1631, 1631, 1631, 1631, 1631, 1631, 1631, 1631, 1631, 1631, 1631, 1631, 1631, 1631, 1631, 1631, 1631, 1631, 1631, 1631, 1631, 1631, 1631, 1631, 1631, 1631, 1631, 1631, 1631, 1631, 1634, 1635, 1637, 1639, 1641, 1641, 1641, 1641, 1641, 1641, 1641, 1641, 1641, 1641, 1641, 1641]","[1010, 1010, 1010, 1010, 1010, 1010, 1010, 1010, 1010, 1010, 1010, 1010, 1010, 1010, 1010, 1010, 1010, 1010, 1010, 1009, 1005, 998, 979, 969, 958, 943, 911, 890, 865, 834, 759, 726, 687, 650, 570, 539, 502, 473, 415, 386, 358, 328, 267, 241, 217, 194, 156, 141, 121, 107, 72, 57, 43, 33, 16, 11, 8, 5, 4, 4, 4, 4, 4, 4, 7, 13, 23, 27, 31, 35, 40, 41, 41, 44, 44, 44, 44, 44, 44, 44, 44, 44, 44, 44, 44, 44, 44, 44, 44, 44, 44, 44, 44, 44, 44, 44, 44, 44, 44, 44, 44, 44, 44, 44, 44, 44, 44, 44, 44, 44, 44, 44, 44, 44, 44, 44, 44, 44, 44, 44, 44, 44, 42, 42, 42, 42, 42, 42, 42, 42, 42, 42, 42, 42]"
"Promise","Wie oft werden Sie die Hälfte zurückgeben?","Promise","1","undefined","20","0","7","60","1080","231","10","1","800","0","legacy","[11, 21, 31, 41, 51, 61, 71, 81, 91, 101, 111, 121, 131, 141, 151, 161, 171, 181, 191, 201, 211, 221, 231, 241, 251, 261, 271, 281, 291, 301, 311, 321, 331, 341, 351, 361, 371, 381, 391, 401, 411, 421, 431, 441, 451, 461, 471, 481, 491, 501, 511, 521, 531, 541, 551, 561, 571, 581, 591, 601, 611, 621, 631, 641, 651, 661, 671, 681, 691, 701, 711, 721, 731, 741, 751, 761, 771, 781, 791]","1078","1920","[960, 960, 960, 960, 960, 960, 960, 960, 960, 960, 959, 959, 959, 959, 959, 959, 958, 956, 954, 948, 944, 940, 937, 931, 925, 919, 914, 894, 881, 870, 856, 828, 813, 795, 778, 750, 737, 723, 708, 675, 663, 652, 639, 609, 594, 577, 562, 529, 519, 509, 502, 489, 482, 472, 461, 424, 403, 372, 350, 306, 282, 258, 244, 220, 210, 206, 201, 199, 198, 197, 195, 190, 187, 186, 186, 186, 186, 186, 186]","[1010, 1010, 1010, 1010, 1010, 1010, 1010, 1010, 1010, 1010, 1010, 1010, 1010, 1009, 1008, 1005, 1000, 994, 987, 969, 958, 945, 935, 910, 896, 876, 859, 807, 781, 754, 725, 667, 639, 607, 582, 530, 509, 487, 462, 421, 406, 390, 376, 345, 332, 321, 307, 282, 274, 264, 254, 236, 226, 215, 205, 182, 172, 161, 149, 131, 118, 107, 98, 86, 80, 78, 75, 73, 73, 72, 71, 70, 69, 69, 69, 69, 69, 69, 69]"
"Trust","Teilnehmer A hat Ihnen 2 Punkte übermittelt.","Payback","0","undefined","21","0","7","60","1080","291","10","2","943","0","legacy","[11, 21, 31, 41, 51, 61, 71, 81, 91, 101, 111, 121, 131, 141, 151, 161, 171, 181, 191, 201, 211, 221, 231, 241, 251, 261, 271, 281, 291, 301, 311, 321, 331, 341, 351, 361, 371, 381, 391, 401, 411, 421, 431, 441, 451, 461, 471, 481, 491, 501, 511, 521, 531, 541, 551, 561, 571, 581, 591, 601, 611, 621, 631, 641, 651, 661, 671, 681, 691, 701, 711, 721, 731, 741, 751, 761, 771, 781, 791, 801, 811, 821, 831, 841, 851, 861, 871, 881, 891, 901, 911, 921, 931, 941]","1078","1920","[960, 960, 960, 960, 960, 960, 960, 960, 960, 960, 960, 959, 959, 959, 959, 959, 959, 959, 958, 958, 958, 958, 957, 957, 957, 957, 957, 957, 959, 963, 968, 979, 986, 993, 1005, 1037, 1051, 1060, 1074, 1104, 1124, 1148, 1171, 1204, 1215, 1227, 1244, 1275, 1292, 1306, 1323, 1346, 1355, 1363, 1375, 1396, 1409, 1419, 1431, 1451, 1461, 1477, 1488, 1510, 1517, 1522, 1527, 1537, 1543, 1548, 1554, 1566, 1575, 1583, 1595, 1613, 1624, 1633, 1641, 1661, 1671, 1678, 1685, 1696, 1697, 1699, 1699, 1699, 1699, 1699, 1699, 1699, 1699, 1699]","[1010, 1010, 1010, 1010, 1010, 1010, 1010, 1010, 1010, 1010, 1010, 1010, 1010, 1010, 1010, 1010, 1010, 1010, 1010, 1006, 1002, 998, 993, 982, 975, 968, 960, 946, 938, 926, 915, 892, 879, 866, 847, 802, 782, 768, 750, 708, 675, 644, 606, 548, 532, 512, 487, 438, 410, 383, 353, 313, 299, 283, 268, 247, 236, 229, 219, 203, 195, 182, 173, 157, 149, 144, 139, 131, 128, 124, 123, 119, 117, 115, 113, 110, 106, 104, 102, 96, 93, 91, 89, 85, 85, 85, 84, 84, 84, 84, 84, 84, 84, 84]"
"Trust","Teilnehmer A hat Ihnen 2 Punkte übermittelt.","Payback","0","undefined","22","0","7","60","1080","231","10","2","964","0","legacy","[11, 21, 31, 41, 51, 61, 71, 81, 91, 101, 111, 121, 131, 141, 151, 161, 171, 181, 191, 201, 211, 221, 231, 241, 251, 261, 271, 281, 291, 301, 311, 321, 331, 341, 351, 361, 371, 381, 391, 401, 411, 421, 431, 441, 451, 461, 471, 481, 491, 501, 511, 521, 531, 541, 551, 561, 571, 581, 591, 601, 611, 621, 631, 641, 651, 661, 671, 681, 691, 701, 711, 721, 731, 741, 751, 761, 771, 781, 791, 801, 811, 821, 831, 841, 851, 861, 871, 881, 891, 901, 911, 921, 931, 941, 951, 961]","1078","1920","[960, 960, 960, 960, 960, 960, 960, 960, 960, 960, 960, 960, 960, 960, 960, 960, 960, 957, 957, 957, 957, 957, 964, 970, 976, 990, 995, 1009, 1025, 1077, 1101, 1124, 1154, 1214, 1238, 1261, 1285, 1331, 1354, 1382, 1407, 1447, 1467, 1486, 1504, 1529, 1542, 1552, 1560, 1579, 1588, 1593, 1598, 1605, 1609, 1615, 1620, 1627, 1630, 1635, 1637, 1644, 1647, 1649, 1654, 1660, 1666, 1668, 1671, 1675, 1678, 1679, 1681, 1684, 1686, 1688, 1691, 1695, 1696, 1696, 1698, 1700, 1702, 1702, 1704, 1705, 1706, 1706, 1706, 1707, 1707, 1707, 1707, 1708, 1708, 1708]","[1010, 1010, 1010, 1010, 1010, 1010, 1010, 1010, 1010, 1010, 1010, 1010, 1010, 1010, 1010, 1010, 1010, 1001, 992, 981, 970, 943, 924, 905, 880, 812, 792, 760, 733, 658, 622, 596, 566, 515, 495, 473, 453, 413, 394, 377, 361, 329, 314, 304, 289, 274, 265, 257, 252, 240, 232, 227, 223, 215, 213, 210, 207, 203, 202, 199, 197, 193, 191, 189, 186, 181, 177, 176, 175, 171, 169, 167, 165, 161, 160, 157, 154, 149, 147, 147, 145, 141, 139, 137, 136, 133, 132, 132, 132, 131, 131, 131, 131, 130, 130, 130]"
"Trust","Teilnehmer A hat Ihnen 2 Punkte übermittelt.","Payback","0","undefined","23","0","7","60","1080","211","10","2","780","0","legacy","[11, 21, 31, 41, 51, 61, 71, 81, 91, 101, 111, 121, 131, 141, 151, 161, 171, 181, 191, 201, 211, 221, 231, 241, 251, 261, 271, 281, 291, 301, 311, 321, 331, 341, 351, 361, 371, 381, 391, 401, 411, 421, 431, 441, 451, 461, 471, 481, 491, 501, 511, 521, 531, 541, 551, 561, 571, 581, 591, 601, 611, 621, 631, 641, 651, 661, 671, 681, 691, 701, 711, 721, 731, 741, 751, 761, 771]","1078","1920","[960, 960, 960, 960, 960, 960, 960, 960, 960, 960, 960, 960, 960, 960, 963, 968, 976, 994, 1005, 1013, 1023, 1045, 1066, 1084, 1101, 1141, 1161, 1186, 1214, 1273, 1298, 1325, 1350, 1401, 1428, 1452, 1484, 1547, 1576, 1598, 1624, 1661, 1673, 1685, 1694, 1705, 1710, 1712, 1714, 1719, 1721, 1722, 1723, 1724, 1725, 1726, 1726, 1727, 1727, 1727, 1727, 1731, 1734, 1738, 1740, 1743, 1745, 1746, 1747, 1749, 1751, 1751, 1752, 1752, 1752, 1752, 1752]","[1010, 1010, 1010, 1010, 1010, 1010, 1010, 1010, 1011, 1011, 1011, 1010, 1008, 1001, 996, 991, 984, 969, 960, 948, 933, 898, 867, 837, 812, 758, 732, 699, 664, 598, 569, 535, 506, 448, 421, 395, 367, 317, 292, 276, 255, 226, 220, 210, 203, 195, 190, 188, 187, 182, 180, 179, 178, 177, 177, 177, 177, 177, 177, 177, 176, 170, 165, 160, 158, 153, 150, 149, 147, 145, 142, 142, 141, 141, 141, 141, 141]"
CHF,TotCHF,final_payoff,sum
"15","35","[10, 10, 10, 0]","30"
