Condition,PromiseStage,Stage,accuracy,avg_rt,count_decision_sequence,count_loop1,count_trial_sequence,font_size,height,init_time,payoff,response,rt,subject_nr,synth_backend,tTrajectory,time_experiment,width,xTrajectory,yTrajectory
"Promise","Wie oft werden Sie die Hälfte zurückgeben?","Promise","1","undefined","NA","0","0","60","1080","251","NA","1","1734","0","legacy","[11, 21, 31, 41, 51, 61, 71, 81, 91, 101, 111, 121, 131, 141, 151, 161, 171, 181, 191, 201, 211, 221, 231, 241, 251, 261, 271, 281, 291, 301, 311, 321, 331, 341, 351, 361, 371, 381, 391, 401, 411, 421, 431, 441, 451, 461, 471, 481, 491, 501, 511, 521, 531, 541, 551, 561, 571, 581, 591, 601, 611, 621, 631, 641, 651, 661, 671, 681, 691, 701, 711, 721, 731, 741, 751, 761, 771, 781, 791, 801, 811, 821, 831, 841, 851, 861, 871, 881, 891, 901, 911, 921, 931, 941, 951, 961, 971, 981, 991, 1001, 1011, 1021, 1031, 1041, 1051, 1061, 1071, 1081, 1091, 1101, 1111, 1121, 1131, 1141, 1151, 1161, 1171, 1181, 1191, 1201, 1211, 1221, 1231, 1241, 1251, 1261, 1271, 1281, 1291, 1301, 1311, 1321, 1331, 1341, 1351, 1361, 1371, 1381, 1391, 1401, 1411, 1421, 1431, 1441, 1451, 1461, 1471, 1481, 1491, 1501, 1511, 1521, 1531, 1541, 1551, 1561, 1571, 1581, 1591, 1601, 1611, 1621, 1631, 1641, 1651, 1661, 1671, 1681, 1691, 1701, 1711, 1721, 1731]","1114","1920","[960, 960, 960, 959, 959, 959, 958, 956, 956, 955, 954, 953, 953, 951, 949, 948, 948, 946, 942, 936, 929, 920, 903, 895, 890, 885, 876, 874, 870, 866, 860, 856, 852, 847, 841, 837, 835, 834, 832, 832, 829, 825, 811, 802, 789, 777, 745, 725, 714, 702, 681, 674, 667, 661, 649, 643, 636, 629, 608, 598, 587, 569, 547, 537, 528, 520, 503, 496, 488, 481, 466, 462, 460, 457, 451, 448, 448, 447, 445, 445, 443, 440, 430, 422, 415, 406, 394, 388, 383, 380, 370, 367, 364, 361, 355, 352, 350, 347, 344, 344, 343, 342, 339, 337, 333, 331, 322, 320, 318, 315, 313, 313, 311, 310, 305, 303, 300, 298, 292, 290, 289, 286, 284, 282, 278, 277, 269, 265, 259, 254, 246, 239, 237, 234, 230, 229, 227, 225, 221, 220, 219, 218, 217, 216, 216, 216, 216, 216, 216, 215, 215, 212, 211, 207, 201, 197, 195, 189, 184, 182, 181, 178, 178, 178, 178, 178, 178, 178, 178, 178, 178, 178, 178]","[1010, 1010, 1010, 1010, 1010, 1010, 1010, 1010, 1010, 1010, 1010, 1010, 1010, 1010, 1006, 1005, 1002, 999, 992, 986, 977, 968, 951, 942, 936, 930, 919, 916, 912, 907, 895, 888, 882, 876, 865, 860, 857, 855, 853, 851, 848, 842, 823, 806, 781, 747, 705, 681, 669, 654, 629, 620, 611, 604, 591, 586, 579, 571, 552, 542, 530, 515, 495, 485, 474, 465, 450, 440, 431, 419, 400, 394, 390, 385, 379, 377, 376, 375, 373, 373, 371, 368, 358, 351, 346, 338, 328, 324, 321, 318, 312, 309, 306, 303, 297, 294, 292, 290, 287, 286, 283, 282, 279, 277, 273, 271, 265, 263, 260, 258, 257, 256, 254, 253, 248, 246, 244, 241, 236, 235, 233, 231, 229, 227, 223, 221, 212, 208, 203, 198, 191, 185, 182, 179, 175, 172, 171, 168, 165, 163, 162, 160, 160, 159, 159, 158, 158, 158, 158, 157, 155, 153, 150, 144, 129, 120, 114, 107, 96, 94, 92, 89, 89, 89, 89, 89, 89, 89, 89, 89, 89, 89, 89]"
Cond,DecisionB,Stage,accuracy,avg_rt,count_decision_sequence,count_loop1,count_trial_sequence,font_size,height,init_time,payoff,response,rt,subject_nr,synth_backend,tTrajectory,time_experiment,width,xTrajectory,yTrajectory
"NoTrust","Teilnehmer A hat Ihnen keine 2 Punkte übermittelt.","Payback","1","undefined","0","0","0","60","1080","251","0","1","1734","0","legacy","[11, 21, 31, 41, 51, 61, 71, 81, 91, 101, 111, 121, 131, 141, 151, 161, 171, 181, 191, 201, 211, 221, 231, 241, 251, 261, 271, 281, 291, 301, 311, 321, 331, 341, 351, 361, 371, 381, 391, 401, 411, 421, 431, 441, 451, 461, 471, 481, 491, 501, 511, 521, 531, 541, 551, 561, 571, 581, 591, 601, 611, 621, 631, 641, 651, 661, 671, 681, 691, 701, 711, 721, 731, 741, 751, 761, 771, 781, 791, 801, 811, 821, 831, 841, 851, 861, 871, 881, 891, 901, 911, 921, 931, 941, 951, 961, 971, 981, 991, 1001, 1011, 1021, 1031, 1041, 1051, 1061, 1071, 1081, 1091, 1101, 1111, 1121, 1131, 1141, 1151, 1161, 1171, 1181, 1191, 1201, 1211, 1221, 1231, 1241, 1251, 1261, 1271, 1281, 1291, 1301, 1311, 1321, 1331, 1341, 1351, 1361, 1371, 1381, 1391, 1401, 1411, 1421, 1431, 1441, 1451, 1461, 1471, 1481, 1491, 1501, 1511, 1521, 1531, 1541, 1551, 1561, 1571, 1581, 1591, 1601, 1611, 1621, 1631, 1641, 1651, 1661, 1671, 1681, 1691, 1701, 1711, 1721, 1731]","1114","1920","[960, 960, 960, 959, 959, 959, 958, 956, 956, 955, 954, 953, 953, 951, 949, 948, 948, 946, 942, 936, 929, 920, 903, 895, 890, 885, 876, 874, 870, 866, 860, 856, 852, 847, 841, 837, 835, 834, 832, 832, 829, 825, 811, 802, 789, 777, 745, 725, 714, 702, 681, 674, 667, 661, 649, 643, 636, 629, 608, 598, 587, 569, 547, 537, 528, 520, 503, 496, 488, 481, 466, 462, 460, 457, 451, 448, 448, 447, 445, 445, 443, 440, 430, 422, 415, 406, 394, 388, 383, 380, 370, 367, 364, 361, 355, 352, 350, 347, 344, 344, 343, 342, 339, 337, 333, 331, 322, 320, 318, 315, 313, 313, 311, 310, 305, 303, 300, 298, 292, 290, 289, 286, 284, 282, 278, 277, 269, 265, 259, 254, 246, 239, 237, 234, 230, 229, 227, 225, 221, 220, 219, 218, 217, 216, 216, 216, 216, 216, 216, 215, 215, 212, 211, 207, 201, 197, 195, 189, 184, 182, 181, 178, 178, 178, 178, 178, 178, 178, 178, 178, 178, 178, 178]","[1010, 1010, 1010, 1010, 1010, 1010, 1010, 1010, 1010, 1010, 1010, 1010, 1010, 1010, 1006, 1005, 1002, 999, 992, 986, 977, 968, 951, 942, 936, 930, 919, 916, 912, 907, 895, 888, 882, 876, 865, 860, 857, 855, 853, 851, 848, 842, 823, 806, 781, 747, 705, 681, 669, 654, 629, 620, 611, 604, 591, 586, 579, 571, 552, 542, 530, 515, 495, 485, 474, 465, 450, 440, 431, 419, 400, 394, 390, 385, 379, 377, 376, 375, 373, 373, 371, 368, 358, 351, 346, 338, 328, 324, 321, 318, 312, 309, 306, 303, 297, 294, 292, 290, 287, 286, 283, 282, 279, 277, 273, 271, 265, 263, 260, 258, 257, 256, 254, 253, 248, 246, 244, 241, 236, 235, 233, 231, 229, 227, 223, 221, 212, 208, 203, 198, 191, 185, 182, 179, 175, 172, 171, 168, 165, 163, 162, 160, 160, 159, 159, 158, 158, 158, 158, 157, 155, 153, 150, 144, 129, 120, 114, 107, 96, 94, 92, 89, 89, 89, 89, 89, 89, 89, 89, 89, 89, 89, 89]"
"Trust","Teilnehmer A hat Ihnen 2 Punkte übermittelt.","Payback","1","undefined","1","0","0","60","1080","491","5","1","1923","0","legacy","[11, 21, 31, 41, 51, 61, 71, 81, 91, 101, 111, 121, 131, 141, 151, 161, 171, 181, 191, 201, 211, 221, 231, 241, 251, 261, 271, 281, 291, 301, 311, 321, 331, 341, 351, 361, 371, 381, 391, 401, 411, 421, 431, 441, 451, 461, 471, 481, 491, 501, 511, 521, 531, 541, 551, 561, 571, 581, 591, 601, 611, 621, 631, 641, 651, 661, 671, 681, 691, 701, 711, 721, 731, 741, 751, 761, 771, 781, 791, 801, 811, 821, 831, 841, 851, 861, 871, 881, 891, 901, 911, 921, 931, 941, 951, 961, 971, 981, 991, 1001, 1011, 1021, 1031, 1041, 1051, 1061, 1071, 1081, 1091, 1101, 1111, 1121, 1131, 1141, 1151, 1161, 1171, 1181, 1191, 1201, 1211, 1221, 1231, 1241, 1251, 1261, 1271, 1281, 1291, 1301, 1311, 1321, 1331, 1341, 1351, 1361, 1371, 1381, 1391, 1401, 1411, 1421, 1431, 1441, 1451, 1461, 1471, 1481, 1491, 1501, 1511, 1521, 1531, 1541, 1551, 1561, 1571, 1581, 1591, 1601, 1611, 1621, 1631, 1641, 1651, 1661, 1671, 1681, 1691, 1701, 1711, 1721, 1731, 1741, 1751, 1761, 1771, 1781, 1791, 1801, 1811, 1821, 1831, 1841, 1851, 1861, 1871, 1881, 1891, 1901, 1911, 1921]","1114","1920","[960, 960, 960, 960, 960, 960, 960, 960, 960, 960, 960, 960, 960, 960, 960, 960, 960, 960, 960, 960, 960, 960, 960, 960, 960, 960, 960, 960, 960, 960, 960, 960, 960, 960, 960, 960, 960, 960, 957, 954, 950, 940, 938, 934, 931, 924, 922, 916, 912, 903, 897, 892, 888, 880, 874, 870, 865, 849, 840, 834, 825, 816, 810, 803, 797, 779, 771, 760, 749, 732, 727, 720, 714, 702, 694, 686, 673, 644, 629, 616, 606, 588, 582, 577, 572, 560, 552, 542, 531, 507, 496, 485, 477, 461, 452, 445, 438, 423, 414, 407, 399, 382, 375, 366, 360, 347, 342, 337, 332, 323, 320, 318, 314, 310, 310, 308, 307, 304, 300, 299, 297, 290, 287, 282, 280, 277, 276, 274, 271, 266, 265, 262, 260, 256, 255, 254, 254, 251, 251, 250, 249, 247, 247, 247, 245, 243, 241, 239, 239, 236, 236, 236, 235, 233, 232, 230, 228, 226, 225, 224, 223, 220, 217, 216, 214, 208, 206, 201, 199, 195, 194, 193, 191, 190, 189, 188, 186, 186, 186, 186, 186, 186, 186, 186, 186, 186, 186, 186, 186, 186, 186, 186]","[1010, 1010, 1010, 1010, 1010, 1010, 1010, 1010, 1010, 1010, 1010, 1010, 1010, 1010, 1010, 1010, 1010, 1010, 1010, 1010, 1010, 1010, 1010, 1010, 1010, 1010, 1010, 1010, 1010, 1010, 1010, 1010, 1010, 1010, 1010, 1010, 1010, 1010, 1010, 1010, 1008, 995, 989, 983, 974, 960, 953, 944, 937, 925, 917, 910, 905, 892, 885, 879, 870, 845, 829, 817, 806, 792, 786, 778, 770, 747, 735, 718, 701, 677, 667, 659, 652, 637, 629, 617, 603, 570, 554, 545, 534, 520, 513, 508, 502, 487, 478, 466, 454, 429, 420, 412, 406, 392, 386, 379, 373, 360, 353, 348, 342, 330, 325, 317, 314, 304, 299, 295, 291, 284, 282, 279, 277, 274, 274, 273, 271, 268, 266, 264, 262, 256, 253, 249, 248, 243, 241, 239, 238, 232, 229, 228, 227, 223, 222, 221, 221, 216, 215, 214, 212, 209, 208, 207, 204, 199, 194, 192, 191, 187, 185, 183, 181, 177, 174, 172, 169, 165, 164, 162, 160, 155, 150, 149, 144, 135, 130, 124, 120, 115, 113, 111, 109, 107, 105, 103, 101, 100, 100, 100, 100, 100, 100, 100, 100, 100, 100, 100, 100, 100, 100, 100]"
"Trust","Teilnehmer A hat Ihnen 2 Punkte übermittelt.","Payback","1","undefined","2","0","0","60","1080","591","5","1","1700","0","legacy","[11, 21, 31, 41, 51, 61, 71, 81, 91, 101, 111, 121, 131, 141, 151, 161, 171, 181, 191, 201, 211, 221, 231, 241, 251, 261, 271, 281, 291, 301, 311, 321, 331, 341, 351, 361, 371, 381, 391, 401, 411, 421, 431, 441, 451, 461, 471, 481, 491, 501, 511, 521, 531, 541, 551, 561, 571, 581, 591, 601, 611, 621, 631, 641, 651, 661, 671, 681, 691, 701, 711, 721, 731, 741, 751, 761, 771, 781, 791, 801, 811, 821, 831, 841, 851, 861, 871, 881, 891, 901, 911, 921, 931, 941, 951, 961, 971, 981, 991, 1001, 1011, 1021, 1031, 1041, 1051, 1061, 1071, 1081, 1091, 1101, 1111, 1121, 1131, 1141, 1151, 1161, 1171, 1181, 1191, 1201, 1211, 1221, 1231, 1241, 1251, 1261, 1271, 1281, 1291, 1301, 1311, 1321, 1331, 1341, 1351, 1361, 1371, 1381, 1391, 1401, 1411, 1421, 1431, 1441, 1451, 1461, 1471, 1481, 1491, 1501, 1511, 1521, 1531, 1541, 1551, 1561, 1571, 1581, 1591, 1601, 1611, 1621, 1631, 1641, 1651, 1661, 1671, 1681, 1691]","1114","1920","[960, 960, 960, 960, 960, 960, 960, 960, 960, 960, 960, 960, 960, 960, 960, 960, 960, 960, 960, 960, 960, 960, 960, 960, 960, 960, 960, 960, 960, 960, 960, 961, 961, 958, 957, 955, 954, 951, 950, 948, 948, 947, 946, 945, 945, 944, 941, 939, 937, 933, 930, 928, 926, 917, 915, 914, 911, 903, 900, 896, 891, 881, 875, 870, 864, 853, 848, 843, 840, 831, 825, 818, 809, 789, 767, 751, 730, 701, 690, 680, 674, 665, 659, 653, 646, 636, 631, 625, 619, 609, 604, 599, 591, 581, 577, 571, 565, 547, 537, 528, 520, 507, 501, 498, 491, 480, 476, 470, 464, 453, 447, 439, 434, 423, 419, 415, 409, 401, 395, 390, 385, 372, 365, 360, 354, 343, 339, 335, 331, 323, 318, 315, 311, 306, 303, 302, 301, 299, 297, 297, 296, 292, 290, 287, 284, 277, 272, 268, 263, 255, 249, 247, 243, 236, 234, 229, 226, 222, 219, 218, 218, 216, 216, 216, 216, 216, 216, 216, 216]","[1010, 1010, 1010, 1010, 1010, 1010, 1010, 1010, 1010, 1010, 1010, 1010, 1010, 1010, 1010, 1010, 1010, 1010, 1010, 1010, 1010, 1010, 1010, 1010, 1010, 1010, 1010, 1010, 1010, 1010, 1010, 1010, 1009, 1004, 1002, 1000, 998, 994, 994, 991, 991, 989, 988, 987, 986, 984, 982, 980, 977, 973, 968, 965, 963, 958, 954, 953, 949, 941, 937, 932, 927, 917, 910, 905, 899, 890, 885, 881, 877, 866, 859, 848, 838, 814, 790, 770, 744, 709, 692, 680, 670, 656, 647, 640, 632, 618, 612, 606, 598, 586, 578, 571, 563, 550, 545, 539, 532, 513, 506, 498, 491, 480, 475, 472, 467, 457, 452, 447, 442, 429, 423, 417, 412, 403, 399, 392, 386, 376, 369, 361, 355, 340, 332, 327, 319, 306, 301, 295, 290, 277, 271, 264, 256, 244, 236, 231, 224, 212, 204, 196, 189, 174, 165, 159, 152, 142, 136, 132, 128, 121, 118, 114, 111, 107, 105, 102, 100, 97, 95, 95, 94, 94, 94, 94, 94, 94, 94, 94, 94]"
"Promise","Wie oft werden Sie die Hälfte zurückgeben?","Promise","1","undefined","2","0","1","60","1080","241","5","1","1278","0","legacy","[11, 21, 31, 41, 51, 61, 71, 81, 91, 101, 111, 121, 131, 141, 151, 161, 171, 181, 191, 201, 211, 221, 231, 241, 251, 261, 271, 281, 291, 301, 311, 321, 331, 341, 351, 361, 371, 381, 391, 401, 411, 421, 431, 441, 451, 461, 471, 481, 491, 501, 511, 521, 531, 541, 551, 561, 571, 581, 591, 601, 611, 621, 631, 641, 651, 661, 671, 681, 691, 701, 711, 721, 731, 741, 751, 761, 771, 781, 791, 801, 811, 821, 831, 841, 851, 861, 871, 881, 891, 901, 911, 921, 931, 941, 951, 961, 971, 981, 991, 1001, 1011, 1021, 1031, 1041, 1051, 1061, 1071, 1081, 1091, 1101, 1111, 1121, 1131, 1141, 1151, 1161, 1171, 1181, 1191, 1201, 1211, 1221, 1231, 1241, 1251, 1261, 1271]","1114","1920","[960, 960, 960, 960, 960, 960, 960, 960, 960, 960, 960, 960, 960, 960, 960, 959, 959, 959, 956, 953, 951, 948, 940, 934, 922, 904, 858, 833, 804, 773, 723, 694, 671, 650, 612, 599, 589, 581, 570, 563, 558, 551, 539, 532, 529, 524, 513, 504, 497, 483, 457, 445, 428, 413, 384, 372, 363, 358, 343, 338, 331, 326, 316, 310, 309, 306, 302, 299, 295, 293, 286, 282, 278, 275, 268, 266, 262, 258, 249, 242, 234, 223, 206, 201, 194, 188, 179, 177, 175, 173, 172, 172, 172, 172, 172, 172, 172, 172, 172, 172, 172, 172, 172, 172, 172, 172, 172, 172, 172, 172, 172, 172, 172, 172, 172, 172, 172, 172, 172, 172, 172, 172, 172, 172, 172, 172, 172]","[1010, 1010, 1010, 1010, 1010, 1010, 1010, 1010, 1010, 1010, 1010, 1010, 1010, 1010, 1010, 1009, 1006, 1005, 995, 988, 978, 965, 942, 929, 909, 882, 825, 798, 773, 747, 704, 681, 661, 639, 602, 585, 573, 562, 548, 541, 532, 523, 505, 497, 489, 483, 464, 454, 444, 426, 396, 383, 370, 358, 335, 327, 318, 312, 298, 292, 285, 277, 266, 260, 255, 253, 244, 241, 235, 227, 212, 204, 197, 191, 180, 176, 170, 165, 152, 143, 134, 120, 102, 94, 89, 83, 74, 70, 68, 67, 65, 65, 65, 65, 65, 65, 65, 65, 65, 65, 65, 65, 65, 65, 65, 65, 65, 65, 65, 65, 65, 65, 65, 65, 65, 65, 65, 65, 65, 65, 65, 65, 65, 65, 65, 65, 65]"
"Trust","Teilnehmer A hat Ihnen 2 Punkte übermittelt.","Payback","1","undefined","3","0","1","60","1080","601","5","1","1716","0","legacy","[11, 21, 31, 41, 51, 61, 71, 81, 91, 101, 111, 121, 131, 141, 151, 161, 171, 181, 191, 201, 211, 221, 231, 241, 251, 261, 271, 281, 291, 301, 311, 321, 331, 341, 351, 361, 371, 381, 391, 401, 411, 421, 431, 441, 451, 461, 471, 481, 491, 501, 511, 521, 531, 541, 551, 561, 571, 581, 591, 601, 611, 621, 631, 641, 651, 661, 671, 681, 691, 701, 711, 721, 731, 741, 751, 761, 771, 781, 791, 801, 811, 821, 831, 841, 851, 861, 871, 881, 891, 901, 911, 921, 931, 941, 951, 961, 971, 981, 991, 1001, 1011, 1021, 1031, 1041, 1051, 1061, 1071, 1081, 1091, 1101, 1111, 1121, 1131, 1141, 1151, 1161, 1171, 1181, 1191, 1201, 1211, 1221, 1231, 1241, 1251, 1261, 1271, 1281, 1291, 1301, 1311, 1321, 1331, 1341, 1351, 1361, 1371, 1381, 1391, 1401, 1411, 1421, 1431, 1441, 1451, 1461, 1471, 1481, 1491, 1501, 1511, 1521, 1531, 1541, 1551, 1561, 1571, 1581, 1591, 1601, 1611, 1621, 1631, 1641, 1651, 1661, 1671, 1681, 1691, 1701, 1711]","1114","1920","[960, 960, 960, 960, 961, 961, 961, 961, 961, 961, 961, 961, 961, 961, 961, 961, 961, 961, 961, 961, 961, 961, 961, 961, 961, 961, 961, 961, 961, 961, 961, 961, 961, 961, 961, 961, 961, 961, 961, 961, 961, 961, 961, 961, 961, 961, 961, 961, 961, 961, 961, 960, 952, 931, 918, 911, 904, 891, 878, 865, 850, 826, 809, 791, 775, 757, 756, 753, 753, 752, 751, 751, 750, 746, 741, 737, 732, 717, 708, 699, 688, 663, 650, 638, 628, 611, 604, 595, 586, 563, 556, 548, 542, 529, 519, 511, 498, 466, 447, 430, 420, 400, 393, 385, 375, 359, 350, 343, 336, 327, 323, 319, 315, 310, 307, 304, 300, 293, 290, 287, 283, 274, 270, 266, 260, 253, 250, 247, 245, 240, 236, 232, 228, 217, 212, 208, 204, 197, 195, 193, 191, 189, 187, 186, 185, 184, 184, 184, 184, 184, 184, 184, 184, 184, 184, 184, 184, 184, 184, 184, 184, 184, 184, 184, 184, 184, 184, 184, 184, 184, 184]","[1010, 1010, 1010, 1010, 1010, 1010, 1010, 1010, 1010, 1010, 1010, 1010, 1010, 1010, 1010, 1010, 1010, 1010, 1010, 1010, 1010, 1010, 1010, 1010, 1010, 1010, 1010, 1010, 1010, 1010, 1010, 1010, 1010, 1010, 1010, 1010, 1010, 1010, 1010, 1010, 1010, 1010, 1010, 1010, 1010, 1010, 1010, 1010, 1010, 1010, 1010, 1009, 1007, 998, 991, 985, 979, 965, 952, 939, 925, 908, 897, 884, 873, 861, 859, 858, 858, 857, 855, 855, 853, 850, 846, 841, 834, 815, 803, 793, 781, 755, 744, 734, 725, 709, 700, 690, 673, 630, 617, 608, 599, 580, 568, 554, 537, 485, 459, 434, 420, 395, 385, 372, 360, 337, 326, 315, 306, 291, 287, 283, 279, 271, 266, 261, 255, 243, 238, 234, 227, 216, 211, 203, 196, 181, 177, 171, 168, 161, 156, 150, 143, 129, 120, 115, 109, 100, 98, 96, 94, 92, 92, 91, 90, 89, 89, 89, 89, 89, 89, 89, 89, 89, 89, 89, 89, 89, 89, 89, 89, 89, 89, 89, 89, 89, 89, 89, 89, 89, 89]"
"Trust","Teilnehmer A hat Ihnen 2 Punkte übermittelt.","Payback","1","undefined","4","0","1","60","1080","391","5","1","1581","0","legacy","[11, 21, 31, 41, 51, 61, 71, 81, 91, 101, 111, 121, 131, 141, 151, 161, 171, 181, 191, 201, 211, 221, 231, 241, 251, 261, 271, 281, 291, 301, 311, 321, 331, 341, 351, 361, 371, 381, 391, 401, 411, 421, 431, 441, 451, 461, 471, 481, 491, 501, 511, 521, 531, 541, 551, 561, 571, 581, 591, 601, 611, 621, 631, 641, 651, 661, 671, 681, 691, 701, 711, 721, 731, 741, 751, 761, 771, 781, 791, 801, 811, 821, 831, 841, 851, 861, 871, 881, 891, 901, 911, 921, 931, 941, 951, 961, 971, 981, 991, 1001, 1011, 1021, 1031, 1041, 1051, 1061, 1071, 1081, 1091, 1101, 1111, 1121, 1131, 1141, 1151, 1161, 1171, 1181, 1191, 1201, 1211, 1221, 1231, 1241, 1251, 1261, 1271, 1281, 1291, 1301, 1311, 1321, 1331, 1341, 1351, 1361, 1371, 1381, 1391, 1401, 1411, 1421, 1431, 1441, 1451, 1461, 1471, 1481, 1491, 1501, 1511, 1521, 1531, 1541, 1551, 1561, 1571]","1114","1920","[960, 960, 960, 960, 960, 960, 960, 960, 960, 960, 961, 961, 961, 961, 961, 961, 961, 961, 961, 961, 961, 961, 961, 961, 961, 961, 961, 961, 961, 961, 961, 961, 962, 962, 958, 954, 949, 947, 944, 942, 942, 942, 940, 939, 937, 934, 926, 922, 917, 912, 896, 887, 873, 860, 819, 804, 781, 756, 713, 682, 659, 640, 603, 593, 582, 575, 556, 546, 531, 516, 478, 457, 439, 422, 402, 394, 388, 381, 367, 360, 352, 347, 336, 329, 324, 319, 311, 309, 306, 295, 291, 285, 280, 273, 255, 243, 239, 232, 220, 215, 210, 204, 201, 198, 194, 190, 188, 186, 185, 180, 180, 178, 177, 176, 176, 174, 174, 171, 170, 169, 169, 166, 165, 165, 165, 165, 165, 165, 165, 165, 165, 165, 165, 165, 165, 165, 165, 165, 165, 165, 165, 165, 165, 165, 165, 165, 165, 165, 165, 165, 165, 165, 165, 165, 165, 165, 165]","[1010, 1010, 1010, 1010, 1010, 1010, 1010, 1010, 1010, 1010, 1010, 1010, 1010, 1010, 1010, 1010, 1010, 1010, 1010, 1010, 1010, 1010, 1010, 1010, 1010, 1010, 1010, 1010, 1010, 1010, 1010, 1010, 1009, 1004, 976, 965, 952, 944, 931, 924, 917, 911, 899, 891, 882, 876, 858, 851, 843, 838, 820, 810, 797, 786, 753, 739, 723, 704, 671, 649, 633, 619, 596, 588, 580, 574, 558, 548, 533, 519, 479, 464, 447, 436, 421, 415, 411, 405, 395, 390, 386, 383, 370, 364, 358, 353, 344, 341, 338, 327, 321, 312, 302, 289, 262, 247, 236, 226, 210, 204, 195, 181, 172, 166, 160, 148, 145, 142, 138, 132, 130, 128, 127, 122, 120, 116, 114, 106, 103, 100, 96, 89, 88, 87, 87, 87, 87, 87, 87, 87, 87, 87, 87, 87, 87, 87, 87, 87, 87, 87, 87, 87, 87, 87, 87, 87, 87, 87, 87, 87, 87, 87, 87, 87, 87, 87, 87]"
"Trust","Teilnehmer A hat Ihnen 2 Punkte übermittelt.","Payback","1","undefined","5","0","1","60","1080","341","5","1","1782","0","legacy","[11, 21, 31, 41, 51, 61, 71, 81, 91, 101, 111, 121, 131, 141, 151, 161, 171, 181, 191, 201, 211, 221, 231, 241, 251, 261, 271, 281, 291, 301, 311, 321, 331, 341, 351, 361, 371, 381, 391, 401, 411, 421, 431, 441, 451, 461, 471, 481, 491, 501, 511, 521, 531, 541, 551, 561, 571, 581, 591, 601, 611, 621, 631, 641, 651, 661, 671, 681, 691, 701, 711, 721, 731, 741, 751, 761, 771, 781, 791, 801, 811, 821, 831, 841, 851, 861, 871, 881, 891, 901, 911, 921, 931, 941, 951, 961, 971, 981, 991, 1001, 1011, 1021, 1031, 1041, 1051, 1061, 1071, 1081, 1091, 1101, 1111, 1121, 1131, 1141, 1151, 1161, 1171, 1181, 1191, 1201, 1211, 1221, 1231, 1241, 1251, 1261, 1271, 1281, 1291, 1301, 1311, 1321, 1331, 1341, 1351, 1361, 1371, 1381, 1391, 1401, 1411, 1421, 1431, 1441, 1451, 1461, 1471, 1481, 1491, 1501, 1511, 1521, 1531, 1541, 1551, 1561, 1571, 1581, 1591, 1601, 1611, 1621, 1631, 1641, 1651, 1661, 1671, 1681, 1691, 1701, 1711, 1721, 1731, 1741, 1751, 1761, 1771, 1781]","1114","1920","[960, 960, 960, 960, 960, 960, 960, 960, 960, 960, 960, 960, 959, 958, 956, 956, 956, 955, 955, 954, 953, 953, 950, 950, 950, 949, 946, 944, 944, 940, 935, 933, 930, 925, 918, 913, 902, 895, 879, 871, 862, 855, 844, 836, 830, 825, 810, 803, 796, 789, 772, 763, 752, 743, 719, 709, 701, 693, 676, 666, 658, 648, 630, 624, 616, 609, 598, 592, 587, 582, 568, 560, 551, 544, 526, 518, 508, 500, 485, 475, 467, 455, 438, 430, 421, 414, 407, 403, 402, 398, 392, 389, 386, 383, 375, 371, 364, 359, 346, 340, 334, 326, 315, 308, 305, 300, 290, 285, 280, 273, 257, 249, 240, 232, 219, 210, 205, 199, 185, 180, 174, 169, 158, 154, 148, 146, 138, 137, 134, 132, 128, 126, 124, 123, 121, 121, 120, 120, 119, 119, 118, 118, 117, 117, 116, 116, 116, 115, 115, 115, 115, 115, 115, 115, 115, 115, 115, 115, 115, 115, 115, 115, 115, 115, 115, 115, 115, 115, 115, 115, 115, 115, 115, 115, 115, 115, 115, 115]","[1010, 1010, 1010, 1010, 1010, 1010, 1010, 1010, 1010, 1010, 1010, 1010, 1010, 1009, 1008, 1008, 1007, 1006, 1006, 1004, 1004, 1002, 998, 997, 994, 991, 984, 976, 973, 968, 956, 950, 944, 937, 923, 913, 896, 883, 861, 853, 844, 837, 824, 816, 810, 796, 777, 765, 758, 750, 731, 719, 710, 701, 679, 669, 659, 650, 629, 617, 606, 592, 570, 561, 552, 546, 531, 524, 519, 513, 499, 491, 482, 476, 460, 452, 445, 438, 424, 416, 409, 402, 388, 381, 375, 370, 365, 362, 361, 358, 353, 352, 349, 345, 338, 334, 327, 322, 311, 305, 300, 294, 284, 279, 276, 271, 263, 259, 254, 249, 238, 231, 226, 221, 213, 205, 202, 197, 188, 183, 177, 173, 163, 159, 152, 149, 140, 138, 135, 133, 128, 127, 126, 125, 123, 122, 121, 120, 118, 117, 116, 115, 115, 115, 113, 113, 111, 111, 111, 110, 109, 109, 109, 109, 109, 109, 109, 109, 109, 109, 109, 109, 109, 109, 109, 109, 109, 109, 109, 109, 109, 109, 109, 109, 109, 109, 109, 109]"
"Promise","Wie oft werden Sie die Hälfte zurückgeben?","Promise","1","undefined","5","0","2","60","1080","971","5","1","2073","0","legacy","[11, 21, 31, 41, 51, 61, 71, 81, 91, 101, 111, 121, 131, 141, 151, 161, 171, 181, 191, 201, 211, 221, 231, 241, 251, 261, 271, 281, 291, 301, 311, 321, 331, 341, 351, 361, 371, 381, 391, 401, 411, 421, 431, 441, 451, 461, 471, 481, 491, 501, 511, 521, 531, 541, 551, 561, 571, 581, 591, 601, 611, 621, 631, 641, 651, 661, 671, 681, 691, 701, 711, 721, 731, 741, 751, 761, 771, 781, 791, 801, 811, 821, 831, 841, 851, 861, 871, 881, 891, 901, 911, 921, 931, 941, 951, 961, 971, 981, 991, 1001, 1011, 1021, 1031, 1041, 1051, 1061, 1071, 1081, 1091, 1101, 1111, 1121, 1131, 1141, 1151, 1161, 1171, 1181, 1191, 1201, 1211, 1221, 1231, 1241, 1251, 1261, 1271, 1281, 1291, 1301, 1311, 1321, 1331, 1341, 1351, 1361, 1371, 1381, 1391, 1401, 1411, 1421, 1431, 1441, 1451, 1461, 1471, 1481, 1491, 1501, 1511, 1521, 1531, 1541, 1551, 1561, 1571, 1581, 1591, 1601, 1611, 1621, 1631, 1641, 1651, 1661, 1671, 1681, 1691, 1701, 1711, 1721, 1731, 1741, 1751, 1761, 1771, 1781, 1791, 1801, 1811, 1821, 1831, 1841, 1851, 1861, 1871, 1881, 1891, 1901, 1911, 1921, 1931, 1941, 1951, 1961, 1971, 1981, 1991, 2001, 2011, 2021, 2031, 2041, 2051, 2061, 2071]","1114","1920","[960, 960, 960, 960, 960, 960, 960, 960, 960, 960, 960, 960, 960, 960, 960, 960, 960, 960, 960, 960, 960, 960, 960, 960, 960, 960, 960, 960, 960, 960, 960, 960, 960, 960, 960, 960, 960, 960, 960, 960, 960, 960, 960, 960, 960, 960, 960, 960, 960, 960, 960, 960, 960, 960, 960, 960, 960, 960, 960, 960, 960, 960, 960, 960, 960, 960, 960, 960, 960, 960, 960, 960, 960, 960, 960, 960, 960, 960, 960, 960, 960, 960, 960, 959, 956, 955, 954, 952, 948, 944, 939, 934, 920, 911, 903, 894, 876, 869, 857, 847, 829, 820, 811, 801, 782, 773, 763, 754, 738, 729, 721, 712, 695, 688, 680, 674, 651, 639, 624, 609, 585, 571, 552, 537, 504, 492, 483, 470, 449, 440, 428, 418, 397, 384, 375, 366, 351, 345, 339, 334, 320, 312, 306, 300, 287, 279, 273, 267, 258, 254, 249, 243, 228, 223, 216, 209, 197, 191, 188, 184, 179, 177, 175, 172, 170, 168, 167, 166, 164, 163, 163, 163, 162, 162, 162, 162, 162, 161, 161, 161, 161, 161, 161, 161, 161, 161, 161, 161, 161, 161, 161, 161, 161, 161, 161, 161, 161, 161, 161, 161, 161, 161, 161, 161, 161, 161, 161]","[1010, 1010, 1010, 1010, 1010, 1010, 1010, 1010, 1010, 1010, 1010, 1010, 1010, 1010, 1010, 1010, 1010, 1010, 1010, 1010, 1010, 1010, 1010, 1010, 1010, 1010, 1010, 1010, 1010, 1010, 1010, 1010, 1010, 1010, 1010, 1010, 1010, 1010, 1010, 1010, 1010, 1010, 1010, 1010, 1010, 1010, 1010, 1010, 1010, 1010, 1010, 1010, 1010, 1010, 1010, 1010, 1010, 1010, 1010, 1010, 1010, 1010, 1010, 1010, 1010, 1010, 1010, 1010, 1010, 1010, 1010, 1010, 1010, 1010, 1010, 1010, 1010, 1010, 1010, 1010, 1010, 1010, 1010, 1009, 1006, 1005, 1004, 1002, 997, 992, 987, 981, 968, 960, 954, 947, 931, 926, 918, 911, 898, 890, 882, 875, 858, 849, 838, 827, 802, 789, 773, 757, 732, 723, 713, 702, 676, 661, 643, 625, 595, 580, 563, 549, 520, 512, 503, 495, 476, 470, 459, 450, 427, 416, 408, 398, 380, 370, 362, 355, 336, 325, 317, 308, 291, 282, 273, 266, 248, 241, 231, 222, 202, 193, 184, 176, 160, 154, 148, 143, 133, 129, 124, 120, 117, 114, 112, 111, 107, 106, 105, 104, 103, 103, 103, 103, 103, 103, 103, 103, 103, 103, 103, 103, 103, 103, 103, 103, 103, 103, 103, 103, 103, 103, 103, 103, 103, 103, 103, 103, 103, 103, 103, 103, 103, 103, 103]"
"Trust","Teilnehmer A hat Ihnen 2 Punkte übermittelt.","Payback","1","undefined","6","0","2","60","1080","361","5","1","1974","0","legacy","[11, 21, 31, 41, 51, 61, 71, 81, 91, 101, 111, 121, 131, 141, 151, 161, 171, 181, 191, 201, 211, 221, 231, 241, 251, 261, 271, 281, 291, 301, 311, 321, 331, 341, 351, 361, 371, 381, 391, 401, 411, 421, 431, 441, 451, 461, 471, 481, 491, 501, 511, 521, 531, 541, 551, 561, 571, 581, 591, 601, 611, 621, 631, 641, 651, 661, 671, 681, 691, 701, 711, 721, 731, 741, 751, 761, 771, 781, 791, 801, 811, 821, 831, 841, 851, 861, 871, 881, 891, 901, 911, 921, 931, 941, 951, 961, 971, 981, 991, 1001, 1011, 1021, 1031, 1041, 1051, 1061, 1071, 1081, 1091, 1101, 1111, 1121, 1131, 1141, 1151, 1161, 1171, 1181, 1191, 1201, 1211, 1221, 1231, 1241, 1251, 1261, 1271, 1281, 1291, 1301, 1311, 1321, 1331, 1341, 1351, 1361, 1371, 1381, 1391, 1401, 1411, 1421, 1431, 1441, 1451, 1461, 1471, 1481, 1491, 1501, 1511, 1521, 1531, 1541, 1551, 1561, 1571, 1581, 1591, 1601, 1611, 1621, 1631, 1641, 1651, 1661, 1671, 1681, 1691, 1701, 1711, 1721, 1731, 1741, 1751, 1761, 1771, 1781, 1791, 1801, 1811, 1821, 1831, 1841, 1851, 1861, 1871, 1881, 1891, 1901, 1911, 1921, 1931, 1941, 1951, 1961, 1971]","1114","1920","[960, 960, 960, 960, 960, 960, 960, 954, 950, 948, 947, 947, 947, 947, 947, 947, 947, 947, 947, 947, 947, 947, 947, 947, 947, 947, 947, 943, 932, 920, 896, 888, 883, 881, 878, 875, 873, 868, 858, 851, 843, 836, 820, 810, 797, 786, 759, 743, 724, 702, 668, 654, 640, 624, 604, 592, 579, 565, 528, 508, 488, 468, 446, 438, 431, 426, 412, 405, 398, 386, 370, 366, 362, 358, 352, 347, 336, 327, 306, 299, 294, 290, 285, 284, 283, 281, 275, 271, 267, 260, 245, 236, 230, 227, 224, 224, 224, 223, 223, 223, 223, 223, 223, 223, 223, 223, 223, 223, 223, 223, 223, 223, 223, 223, 223, 223, 223, 223, 223, 223, 223, 223, 223, 223, 223, 223, 223, 223, 223, 223, 223, 223, 223, 223, 223, 223, 223, 223, 223, 223, 223, 223, 223, 223, 223, 223, 223, 223, 223, 223, 223, 223, 223, 223, 223, 223, 223, 223, 223, 223, 223, 223, 223, 223, 223, 223, 223, 223, 223, 223, 223, 223, 223, 223, 223, 223, 223, 223, 223, 223, 223, 223, 223, 223, 223, 223, 223, 223, 223, 223, 223, 223, 223, 223, 223, 223, 223]","[1010, 1010, 1010, 1010, 1010, 1010, 1010, 1007, 1007, 1007, 1007, 1007, 1007, 1007, 1007, 1007, 1007, 1007, 1007, 1007, 1007, 1007, 1007, 1007, 1007, 1007, 1007, 1007, 1006, 999, 980, 970, 958, 951, 941, 935, 929, 921, 908, 896, 886, 874, 848, 833, 816, 799, 762, 740, 714, 688, 649, 630, 610, 587, 561, 545, 528, 512, 469, 448, 430, 415, 394, 387, 379, 373, 352, 339, 333, 317, 295, 289, 283, 277, 266, 256, 241, 229, 204, 196, 190, 186, 180, 178, 176, 173, 163, 158, 152, 144, 130, 125, 124, 120, 116, 115, 114, 114, 114, 114, 114, 114, 114, 114, 114, 114, 114, 114, 114, 114, 114, 114, 114, 114, 114, 114, 114, 114, 114, 114, 114, 114, 114, 114, 114, 114, 114, 114, 114, 114, 114, 114, 114, 114, 114, 114, 114, 114, 114, 114, 114, 114, 114, 114, 114, 114, 114, 114, 114, 114, 114, 114, 114, 114, 114, 114, 114, 114, 114, 114, 114, 114, 114, 114, 114, 114, 114, 114, 114, 114, 114, 114, 114, 114, 114, 114, 114, 114, 114, 114, 114, 114, 114, 114, 114, 114, 114, 114, 114, 114, 114, 114, 114, 114, 114, 114, 114]"
"NoTrust","Teilnehmer A hat Ihnen keine 2 Punkte übermittelt.","Payback","1","undefined","7","0","2","60","1080","361","0","1","1974","0","legacy","[11, 21, 31, 41, 51, 61, 71, 81, 91, 101, 111, 121, 131, 141, 151, 161, 171, 181, 191, 201, 211, 221, 231, 241, 251, 261, 271, 281, 291, 301, 311, 321, 331, 341, 351, 361, 371, 381, 391, 401, 411, 421, 431, 441, 451, 461, 471, 481, 491, 501, 511, 521, 531, 541, 551, 561, 571, 581, 591, 601, 611, 621, 631, 641, 651, 661, 671, 681, 691, 701, 711, 721, 731, 741, 751, 761, 771, 781, 791, 801, 811, 821, 831, 841, 851, 861, 871, 881, 891, 901, 911, 921, 931, 941, 951, 961, 971, 981, 991, 1001, 1011, 1021, 1031, 1041, 1051, 1061, 1071, 1081, 1091, 1101, 1111, 1121, 1131, 1141, 1151, 1161, 1171, 1181, 1191, 1201, 1211, 1221, 1231, 1241, 1251, 1261, 1271, 1281, 1291, 1301, 1311, 1321, 1331, 1341, 1351, 1361, 1371, 1381, 1391, 1401, 1411, 1421, 1431, 1441, 1451, 1461, 1471, 1481, 1491, 1501, 1511, 1521, 1531, 1541, 1551, 1561, 1571, 1581, 1591, 1601, 1611, 1621, 1631, 1641, 1651, 1661, 1671, 1681, 1691, 1701, 1711, 1721, 1731, 1741, 1751, 1761, 1771, 1781, 1791, 1801, 1811, 1821, 1831, 1841, 1851, 1861, 1871, 1881, 1891, 1901, 1911, 1921, 1931, 1941, 1951, 1961, 1971]","1114","1920","[960, 960, 960, 960, 960, 960, 960, 954, 950, 948, 947, 947, 947, 947, 947, 947, 947, 947, 947, 947, 947, 947, 947, 947, 947, 947, 947, 943, 932, 920, 896, 888, 883, 881, 878, 875, 873, 868, 858, 851, 843, 836, 820, 810, 797, 786, 759, 743, 724, 702, 668, 654, 640, 624, 604, 592, 579, 565, 528, 508, 488, 468, 446, 438, 431, 426, 412, 405, 398, 386, 370, 366, 362, 358, 352, 347, 336, 327, 306, 299, 294, 290, 285, 284, 283, 281, 275, 271, 267, 260, 245, 236, 230, 227, 224, 224, 224, 223, 223, 223, 223, 223, 223, 223, 223, 223, 223, 223, 223, 223, 223, 223, 223, 223, 223, 223, 223, 223, 223, 223, 223, 223, 223, 223, 223, 223, 223, 223, 223, 223, 223, 223, 223, 223, 223, 223, 223, 223, 223, 223, 223, 223, 223, 223, 223, 223, 223, 223, 223, 223, 223, 223, 223, 223, 223, 223, 223, 223, 223, 223, 223, 223, 223, 223, 223, 223, 223, 223, 223, 223, 223, 223, 223, 223, 223, 223, 223, 223, 223, 223, 223, 223, 223, 223, 223, 223, 223, 223, 223, 223, 223, 223, 223, 223, 223, 223, 223]","[1010, 1010, 1010, 1010, 1010, 1010, 1010, 1007, 1007, 1007, 1007, 1007, 1007, 1007, 1007, 1007, 1007, 1007, 1007, 1007, 1007, 1007, 1007, 1007, 1007, 1007, 1007, 1007, 1006, 999, 980, 970, 958, 951, 941, 935, 929, 921, 908, 896, 886, 874, 848, 833, 816, 799, 762, 740, 714, 688, 649, 630, 610, 587, 561, 545, 528, 512, 469, 448, 430, 415, 394, 387, 379, 373, 352, 339, 333, 317, 295, 289, 283, 277, 266, 256, 241, 229, 204, 196, 190, 186, 180, 178, 176, 173, 163, 158, 152, 144, 130, 125, 124, 120, 116, 115, 114, 114, 114, 114, 114, 114, 114, 114, 114, 114, 114, 114, 114, 114, 114, 114, 114, 114, 114, 114, 114, 114, 114, 114, 114, 114, 114, 114, 114, 114, 114, 114, 114, 114, 114, 114, 114, 114, 114, 114, 114, 114, 114, 114, 114, 114, 114, 114, 114, 114, 114, 114, 114, 114, 114, 114, 114, 114, 114, 114, 114, 114, 114, 114, 114, 114, 114, 114, 114, 114, 114, 114, 114, 114, 114, 114, 114, 114, 114, 114, 114, 114, 114, 114, 114, 114, 114, 114, 114, 114, 114, 114, 114, 114, 114, 114, 114, 114, 114, 114, 114]"
"Trust","Teilnehmer A hat Ihnen 2 Punkte übermittelt.","Payback","0","undefined","8","0","2","60","1080","391","10","2","1446","0","legacy","[11, 21, 31, 41, 51, 61, 71, 81, 91, 101, 111, 121, 131, 141, 151, 161, 171, 181, 191, 201, 211, 221, 231, 241, 251, 261, 271, 281, 291, 301, 311, 321, 331, 341, 351, 361, 371, 381, 391, 401, 411, 421, 431, 441, 451, 461, 471, 481, 491, 501, 511, 521, 531, 541, 551, 561, 571, 581, 591, 601, 611, 621, 631, 641, 651, 661, 671, 681, 691, 701, 711, 721, 731, 741, 751, 761, 771, 781, 791, 801, 811, 821, 831, 841, 851, 861, 871, 881, 891, 901, 911, 921, 931, 941, 951, 961, 971, 981, 991, 1001, 1011, 1021, 1031, 1041, 1051, 1061, 1071, 1081, 1091, 1101, 1111, 1121, 1131, 1141, 1151, 1161, 1171, 1181, 1191, 1201, 1211, 1221, 1231, 1241, 1251, 1261, 1271, 1281, 1291, 1301, 1311, 1321, 1331, 1341, 1351, 1361, 1371, 1381, 1391, 1401, 1411, 1421, 1431, 1441]","1114","1920","[960, 960, 960, 960, 960, 960, 960, 960, 960, 960, 960, 960, 960, 960, 960, 960, 960, 960, 960, 960, 960, 960, 960, 960, 960, 960, 960, 960, 960, 960, 970, 979, 996, 1006, 1028, 1038, 1051, 1060, 1071, 1074, 1078, 1080, 1085, 1086, 1087, 1088, 1093, 1096, 1100, 1105, 1116, 1118, 1124, 1131, 1147, 1157, 1167, 1180, 1199, 1208, 1215, 1219, 1230, 1232, 1239, 1244, 1256, 1263, 1273, 1281, 1298, 1304, 1312, 1319, 1333, 1343, 1358, 1379, 1417, 1435, 1452, 1468, 1489, 1496, 1505, 1511, 1526, 1534, 1543, 1550, 1564, 1568, 1574, 1577, 1583, 1583, 1586, 1587, 1591, 1593, 1595, 1596, 1602, 1613, 1621, 1636, 1667, 1675, 1685, 1692, 1695, 1695, 1695, 1695, 1695, 1695, 1695, 1695, 1695, 1695, 1695, 1695, 1695, 1695, 1695, 1695, 1695, 1695, 1695, 1695, 1695, 1695, 1695, 1695, 1695, 1695, 1695, 1695, 1695, 1695, 1695, 1695, 1695, 1695]","[1010, 1010, 1010, 1010, 1010, 1010, 1010, 1010, 1010, 1011, 1011, 1011, 1011, 1011, 1011, 1011, 1011, 1011, 1011, 1011, 1011, 1011, 1011, 1011, 1011, 1011, 1011, 1011, 1011, 1011, 1012, 1011, 1004, 997, 979, 968, 954, 940, 921, 913, 904, 897, 890, 889, 887, 883, 867, 861, 853, 848, 837, 832, 824, 812, 785, 764, 752, 735, 714, 705, 696, 686, 659, 645, 625, 595, 522, 487, 464, 445, 422, 413, 403, 394, 369, 354, 336, 315, 278, 261, 240, 218, 189, 176, 164, 157, 139, 132, 125, 116, 93, 80, 69, 58, 44, 42, 40, 39, 38, 38, 37, 37, 37, 37, 37, 43, 59, 64, 70, 72, 72, 72, 72, 72, 72, 72, 72, 72, 72, 72, 72, 72, 72, 72, 72, 72, 72, 72, 72, 72, 72, 72, 72, 72, 72, 72, 72, 72, 72, 72, 72, 72, 72, 72]"
"Promise","Wie oft werden Sie die Hälfte zurückgeben?","Promise","1","undefined","8","0","3","60","1080","2101","10","1","3271","0","legacy","[11, 21, 31, 41, 51, 61, 71, 81, 91, 101, 111, 121, 131, 141, 151, 161, 171, 181, 191, 201, 211, 221, 231, 241, 251, 261, 271, 281, 291, 301, 311, 321, 331, 341, 351, 361, 371, 381, 391, 401, 411, 421, 431, 441, 451, 461, 471, 481, 491, 501, 511, 521, 531, 541, 551, 561, 571, 581, 591, 601, 611, 621, 631, 641, 651, 661, 671, 681, 691, 701, 711, 721, 731, 741, 751, 761, 771, 781, 791, 801, 811, 821, 831, 841, 851, 861, 871, 881, 891, 901, 911, 921, 931, 941, 951, 961, 971, 981, 991, 1001, 1011, 1021, 1031, 1041, 1051, 1061, 1071, 1081, 1091, 1101, 1111, 1121, 1131, 1141, 1151, 1161, 1171, 1181, 1191, 1201, 1211, 1221, 1231, 1241, 1251, 1261, 1271, 1281, 1291, 1301, 1311, 1321, 1331, 1341, 1351, 1361, 1371, 1381, 1391, 1401, 1411, 1421, 1431, 1441, 1451, 1461, 1471, 1481, 1491, 1501, 1511, 1521, 1531, 1541, 1551, 1561, 1571, 1581, 1591, 1601, 1611, 1621, 1631, 1641, 1651, 1661, 1671, 1681, 1691, 1701, 1711, 1721, 1731, 1741, 1751, 1761, 1771, 1781, 1791, 1801, 1811, 1821, 1831, 1841, 1851, 1861, 1871, 1881, 1891, 1901, 1911, 1921, 1931, 1941, 1951, 1961, 1971, 1981, 1991, 2001, 2011, 2021, 2031, 2041, 2051, 2061, 2071, 2081, 2091, 2101, 2111, 2121, 2131, 2141, 2151, 2161, 2171, 2181, 2191, 2201, 2211, 2221, 2231, 2241, 2251, 2261, 2271, 2281, 2291, 2301, 2311, 2321, 2331, 2341, 2351, 2361, 2371, 2381, 2391, 2401, 2411, 2421, 2431, 2441, 2451, 2461, 2471, 2481, 2491, 2501, 2511, 2521, 2531, 2541, 2551, 2561, 2571, 2581, 2591, 2601, 2611, 2621, 2631, 2641, 2651, 2661, 2671, 2681, 2691, 2701, 2711, 2721, 2731, 2741, 2751, 2761, 2771, 2781, 2791, 2801, 2811, 2821, 2831, 2841, 2851, 2861, 2871, 2881, 2891, 2901, 2911, 2921, 2931, 2941, 2951, 2961, 2971, 2981, 2991, 3001, 3011, 3021, 3031, 3041, 3051, 3061, 3071, 3081, 3091, 3101, 3111, 3121, 3131, 3141, 3151, 3161, 3171, 3181, 3191, 3201, 3211, 3221, 3231, 3241, 3251, 3261, 3271]","1114","1920","[960, 960, 960, 960, 960, 960, 960, 960, 960, 960, 960, 960, 960, 960, 960, 960, 960, 960, 960, 960, 960, 960, 960, 960, 960, 960, 960, 960, 960, 960, 958, 954, 954, 951, 949, 946, 946, 946, 946, 946, 946, 946, 946, 946, 946, 946, 946, 946, 946, 946, 946, 946, 946, 946, 946, 946, 946, 946, 946, 946, 946, 946, 946, 946, 946, 946, 946, 946, 946, 946, 946, 946, 946, 946, 946, 946, 946, 946, 946, 946, 946, 946, 946, 946, 946, 946, 946, 946, 946, 946, 946, 946, 946, 946, 946, 946, 946, 946, 946, 946, 946, 946, 946, 946, 946, 946, 946, 946, 946, 946, 946, 946, 946, 946, 946, 946, 946, 946, 946, 946, 946, 946, 946, 946, 946, 946, 946, 946, 946, 946, 946, 946, 946, 946, 946, 946, 946, 946, 946, 946, 946, 946, 946, 946, 946, 946, 946, 946, 946, 946, 946, 946, 946, 946, 946, 946, 946, 946, 946, 946, 946, 946, 946, 946, 946, 946, 946, 946, 946, 946, 946, 946, 946, 946, 946, 946, 946, 946, 946, 946, 946, 946, 946, 946, 946, 946, 946, 946, 946, 946, 946, 946, 946, 946, 946, 946, 946, 946, 946, 946, 946, 946, 946, 946, 946, 945, 943, 929, 918, 906, 895, 861, 846, 828, 810, 771, 754, 739, 724, 692, 682, 672, 664, 652, 646, 641, 636, 620, 612, 601, 590, 572, 559, 550, 538, 517, 509, 499, 490, 468, 455, 445, 436, 425, 421, 418, 414, 405, 400, 394, 389, 372, 363, 356, 351, 337, 330, 325, 318, 305, 299, 293, 287, 275, 270, 268, 266, 262, 261, 259, 257, 255, 254, 253, 252, 246, 245, 241, 241, 235, 233, 229, 225, 217, 211, 203, 197, 183, 174, 170, 164, 158, 155, 154, 152, 152, 152, 152, 152, 152, 152, 152, 152, 151, 151, 150, 150, 150, 150, 150, 150, 150, 150, 150, 150, 150, 150, 150, 150, 150, 150, 150, 150, 150, 150, 150, 150]","[1010, 1010, 1010, 1010, 1010, 1010, 1010, 1010, 1010, 1010, 1010, 1010, 1010, 1010, 1010, 1010, 1010, 1010, 1010, 1010, 1010, 1010, 1010, 1010, 1010, 1010, 1010, 1010, 1010, 1009, 1008, 1002, 1001, 995, 993, 988, 987, 986, 986, 986, 986, 986, 986, 986, 986, 986, 986, 986, 986, 986, 986, 986, 986, 986, 986, 986, 986, 986, 986, 986, 986, 986, 986, 986, 986, 986, 986, 986, 986, 986, 986, 986, 986, 986, 986, 986, 986, 986, 986, 986, 986, 986, 986, 986, 986, 986, 986, 986, 986, 986, 986, 986, 986, 986, 986, 986, 986, 986, 986, 986, 986, 986, 986, 986, 986, 986, 986, 986, 986, 986, 986, 986, 986, 986, 986, 986, 986, 986, 986, 986, 986, 986, 986, 986, 986, 986, 986, 986, 986, 986, 986, 986, 986, 986, 986, 986, 986, 986, 986, 986, 986, 986, 986, 986, 986, 986, 986, 986, 986, 986, 986, 986, 986, 986, 986, 986, 986, 986, 986, 986, 986, 986, 986, 986, 986, 986, 986, 986, 986, 986, 986, 986, 986, 986, 986, 986, 986, 986, 986, 986, 986, 986, 986, 986, 986, 986, 986, 986, 986, 986, 986, 986, 986, 986, 986, 986, 986, 986, 986, 986, 986, 986, 986, 986, 986, 986, 984, 966, 954, 939, 927, 896, 882, 867, 851, 814, 796, 776, 758, 716, 705, 690, 679, 663, 656, 649, 643, 625, 615, 603, 590, 570, 559, 547, 534, 507, 497, 485, 473, 446, 431, 421, 412, 400, 396, 392, 387, 377, 372, 365, 359, 345, 338, 334, 329, 316, 310, 302, 294, 278, 269, 263, 255, 244, 239, 236, 233, 228, 225, 222, 220, 216, 214, 209, 204, 191, 189, 184, 182, 177, 175, 172, 170, 162, 157, 151, 145, 133, 125, 121, 116, 110, 107, 105, 104, 103, 103, 103, 103, 103, 103, 103, 103, 102, 102, 101, 101, 101, 101, 101, 101, 101, 101, 101, 101, 101, 101, 101, 101, 101, 101, 101, 101, 101, 101, 101, 101]"
"Trust","Teilnehmer A hat Ihnen 2 Punkte übermittelt.","Payback","1","undefined","9","0","3","60","1080","251","5","1","1389","0","legacy","[11, 21, 31, 41, 51, 61, 71, 81, 91, 101, 111, 121, 131, 141, 151, 161, 171, 181, 191, 201, 211, 221, 231, 241, 251, 261, 271, 281, 291, 301, 311, 321, 331, 341, 351, 361, 371, 381, 391, 401, 411, 421, 431, 441, 451, 461, 471, 481, 491, 501, 511, 521, 531, 541, 551, 561, 571, 581, 591, 601, 611, 621, 631, 641, 651, 661, 671, 681, 691, 701, 711, 721, 731, 741, 751, 761, 771, 781, 791, 801, 811, 821, 831, 841, 851, 861, 871, 881, 891, 901, 911, 921, 931, 941, 951, 961, 971, 981, 991, 1001, 1011, 1021, 1031, 1041, 1051, 1061, 1071, 1081, 1091, 1101, 1111, 1121, 1131, 1141, 1151, 1161, 1171, 1181, 1191, 1201, 1211, 1221, 1231, 1241, 1251, 1261, 1271, 1281, 1291, 1301, 1311, 1321, 1331, 1341, 1351, 1361, 1371, 1381]","1114","1920","[960, 960, 960, 960, 960, 960, 960, 960, 960, 960, 960, 960, 960, 960, 960, 957, 955, 951, 942, 939, 934, 928, 920, 917, 913, 910, 902, 899, 893, 886, 870, 862, 857, 846, 828, 822, 814, 807, 794, 785, 777, 768, 749, 740, 731, 723, 707, 697, 688, 676, 648, 635, 621, 608, 582, 573, 562, 553, 537, 530, 522, 514, 501, 494, 487, 480, 467, 458, 449, 441, 422, 415, 407, 399, 386, 378, 370, 361, 344, 334, 326, 321, 311, 306, 301, 295, 285, 282, 279, 274, 262, 259, 255, 249, 241, 237, 232, 226, 219, 214, 210, 206, 201, 197, 193, 191, 184, 179, 176, 173, 162, 158, 155, 152, 147, 144, 143, 142, 142, 142, 142, 142, 142, 142, 142, 142, 142, 142, 142, 142, 142, 142, 142, 142, 142, 142, 142, 142]","[1010, 1010, 1010, 1010, 1010, 1010, 1010, 1010, 1010, 1010, 1010, 1010, 1010, 1010, 1008, 1004, 999, 994, 978, 973, 966, 959, 947, 942, 939, 934, 923, 918, 912, 903, 888, 878, 872, 862, 842, 836, 827, 819, 802, 793, 782, 772, 751, 741, 732, 723, 705, 695, 686, 675, 644, 631, 616, 603, 572, 563, 553, 545, 527, 517, 508, 500, 480, 474, 465, 457, 440, 430, 421, 411, 393, 385, 377, 367, 351, 343, 334, 322, 303, 289, 279, 270, 257, 251, 245, 240, 228, 223, 219, 214, 204, 200, 195, 189, 179, 174, 169, 163, 154, 149, 145, 143, 138, 134, 131, 130, 125, 121, 118, 114, 106, 103, 101, 99, 94, 92, 91, 91, 90, 90, 90, 90, 90, 90, 90, 90, 90, 90, 90, 90, 90, 90, 90, 90, 90, 90, 90, 90]"
"Trust","Teilnehmer A hat Ihnen 2 Punkte übermittelt.","Payback","1","undefined","10","0","3","60","1080","191","5","1","1182","0","legacy","[11, 21, 31, 41, 51, 61, 71, 81, 91, 101, 111, 121, 131, 141, 151, 161, 171, 181, 191, 201, 211, 221, 231, 241, 251, 261, 271, 281, 291, 301, 311, 321, 331, 341, 351, 361, 371, 381, 391, 401, 411, 421, 431, 441, 451, 461, 471, 481, 491, 501, 511, 521, 531, 541, 551, 561, 571, 581, 591, 601, 611, 621, 631, 641, 651, 661, 671, 681, 691, 701, 711, 721, 731, 741, 751, 761, 771, 781, 791, 801, 811, 821, 831, 841, 851, 861, 871, 881, 891, 901, 911, 921, 931, 941, 951, 961, 971, 981, 991, 1001, 1011, 1021, 1031, 1041, 1051, 1061, 1071, 1081, 1091, 1101, 1111, 1121, 1131, 1141, 1151, 1161, 1171, 1181]","1114","1920","[960, 960, 960, 960, 960, 960, 960, 960, 959, 957, 951, 947, 943, 937, 927, 922, 916, 907, 887, 875, 868, 857, 841, 833, 824, 813, 782, 771, 755, 741, 710, 694, 681, 666, 637, 625, 610, 600, 585, 580, 575, 569, 560, 555, 548, 544, 532, 528, 524, 521, 516, 515, 513, 510, 505, 499, 491, 484, 470, 465, 457, 449, 438, 434, 429, 426, 416, 412, 409, 405, 392, 386, 379, 374, 365, 359, 357, 353, 347, 341, 337, 333, 327, 324, 321, 317, 311, 306, 301, 297, 290, 284, 279, 272, 259, 254, 248, 240, 230, 224, 219, 213, 201, 197, 196, 195, 195, 195, 195, 195, 195, 195, 195, 195, 195, 195, 195, 195]","[1010, 1010, 1010, 1010, 1010, 1010, 1009, 1008, 1006, 1005, 999, 993, 989, 983, 969, 963, 957, 948, 930, 921, 913, 903, 886, 876, 867, 857, 830, 820, 805, 790, 756, 738, 727, 714, 685, 674, 664, 653, 635, 628, 620, 613, 600, 593, 584, 575, 556, 548, 539, 530, 516, 509, 502, 493, 473, 463, 450, 439, 420, 411, 402, 390, 371, 364, 355, 347, 330, 323, 317, 311, 292, 283, 274, 269, 255, 248, 243, 238, 226, 217, 210, 202, 192, 187, 182, 175, 163, 155, 149, 140, 128, 122, 115, 108, 99, 96, 90, 84, 75, 70, 66, 60, 54, 52, 51, 50, 50, 50, 50, 50, 50, 50, 50, 50, 50, 50, 50, 50]"
"Trust","Teilnehmer A hat Ihnen 2 Punkte übermittelt.","Payback","1","undefined","11","0","3","60","1080","161","5","1","1277","0","legacy","[11, 21, 31, 41, 51, 61, 71, 81, 91, 101, 111, 121, 131, 141, 151, 161, 171, 181, 191, 201, 211, 221, 231, 241, 251, 261, 271, 281, 291, 301, 311, 321, 331, 341, 351, 361, 371, 381, 391, 401, 411, 421, 431, 441, 451, 461, 471, 481, 491, 501, 511, 521, 531, 541, 551, 561, 571, 581, 591, 601, 611, 621, 631, 641, 651, 661, 671, 681, 691, 701, 711, 721, 731, 741, 751, 761, 771, 781, 791, 801, 811, 821, 831, 841, 851, 861, 871, 881, 891, 901, 911, 921, 931, 941, 951, 961, 971, 981, 991, 1001, 1011, 1021, 1031, 1041, 1051, 1061, 1071, 1081, 1091, 1101, 1111, 1121, 1131, 1141, 1151, 1161, 1171, 1181, 1191, 1201, 1211, 1221, 1231, 1241, 1251, 1261, 1271]","1114","1920","[960, 960, 960, 960, 960, 960, 960, 960, 956, 952, 943, 938, 933, 924, 908, 902, 895, 890, 878, 870, 864, 859, 852, 848, 845, 844, 834, 828, 819, 812, 796, 791, 784, 778, 766, 758, 751, 744, 724, 714, 707, 701, 690, 685, 680, 677, 669, 663, 658, 650, 631, 617, 602, 593, 579, 574, 571, 565, 555, 549, 541, 534, 524, 517, 511, 503, 490, 483, 477, 470, 460, 455, 450, 445, 434, 425, 416, 406, 388, 381, 373, 369, 354, 345, 339, 332, 315, 310, 300, 289, 269, 259, 251, 242, 227, 224, 222, 220, 216, 214, 212, 208, 204, 204, 203, 202, 202, 202, 202, 202, 202, 202, 202, 202, 202, 202, 202, 202, 202, 202, 202, 202, 202, 202, 202, 202, 202]","[1010, 1010, 1010, 1010, 1010, 1010, 1010, 1007, 1003, 1000, 990, 983, 977, 964, 941, 932, 921, 912, 892, 883, 876, 869, 860, 852, 848, 845, 832, 822, 812, 804, 785, 779, 771, 765, 750, 741, 732, 720, 691, 676, 666, 657, 640, 634, 626, 620, 608, 600, 591, 582, 559, 540, 520, 509, 490, 483, 475, 468, 454, 445, 436, 426, 411, 404, 395, 386, 370, 363, 355, 349, 339, 334, 330, 327, 317, 310, 303, 296, 281, 274, 268, 260, 244, 235, 226, 218, 201, 193, 185, 175, 160, 153, 147, 142, 133, 132, 129, 129, 125, 124, 122, 119, 116, 115, 114, 114, 114, 114, 114, 114, 114, 114, 114, 114, 114, 114, 114, 114, 114, 114, 114, 114, 114, 114, 114, 114, 114]"
"Promise","Wie oft werden Sie die Hälfte zurückgeben?","Promise","1","undefined","11","0","4","60","1080","241","5","1","1464","0","legacy","[11, 21, 31, 41, 51, 61, 71, 81, 91, 101, 111, 121, 131, 141, 151, 161, 171, 181, 191, 201, 211, 221, 231, 241, 251, 261, 271, 281, 291, 301, 311, 321, 331, 341, 351, 361, 371, 381, 391, 401, 411, 421, 431, 441, 451, 461, 471, 481, 491, 501, 511, 521, 531, 541, 551, 561, 571, 581, 591, 601, 611, 621, 631, 641, 651, 661, 671, 681, 691, 701, 711, 721, 731, 741, 751, 761, 771, 781, 791, 801, 811, 821, 831, 841, 851, 861, 871, 881, 891, 901, 911, 921, 931, 941, 951, 961, 971, 981, 991, 1001, 1011, 1021, 1031, 1041, 1051, 1061, 1071, 1081, 1091, 1101, 1111, 1121, 1131, 1141, 1151, 1161, 1171, 1181, 1191, 1201, 1211, 1221, 1231, 1241, 1251, 1261, 1271, 1281, 1291, 1301, 1311, 1321, 1331, 1341, 1351, 1361, 1371, 1381, 1391, 1401, 1411, 1421, 1431, 1441, 1451, 1461]","1114","1920","[960, 960, 960, 960, 960, 960, 960, 960, 960, 960, 960, 960, 960, 960, 960, 960, 960, 960, 959, 942, 928, 913, 900, 878, 867, 858, 849, 826, 816, 804, 795, 776, 768, 756, 750, 730, 718, 710, 699, 679, 666, 656, 639, 600, 577, 553, 522, 470, 450, 425, 408, 378, 366, 352, 342, 324, 314, 302, 293, 267, 250, 235, 223, 199, 190, 181, 175, 165, 161, 158, 153, 146, 140, 136, 131, 124, 121, 119, 118, 116, 113, 112, 112, 109, 108, 107, 105, 103, 103, 103, 101, 100, 100, 100, 99, 97, 97, 97, 97, 97, 97, 97, 97, 96, 96, 96, 96, 95, 95, 95, 95, 95, 95, 95, 93, 93, 93, 93, 93, 93, 93, 93, 93, 93, 93, 93, 93, 93, 93, 93, 93, 93, 93, 93, 93, 93, 93, 93, 93, 93, 93, 93, 93, 93, 93, 93]","[1010, 1010, 1010, 1010, 1010, 1010, 1010, 1010, 1010, 1010, 1010, 1010, 1010, 1010, 1010, 1010, 1010, 1008, 1005, 990, 979, 965, 954, 933, 922, 913, 902, 872, 858, 845, 835, 817, 810, 801, 795, 777, 768, 756, 746, 725, 711, 698, 684, 648, 630, 610, 586, 542, 527, 510, 497, 474, 463, 454, 447, 433, 423, 414, 405, 385, 374, 363, 354, 339, 331, 325, 320, 313, 309, 307, 300, 291, 284, 279, 274, 265, 261, 258, 255, 250, 248, 244, 242, 237, 234, 230, 227, 222, 221, 218, 214, 208, 206, 203, 199, 192, 189, 185, 178, 170, 167, 164, 159, 152, 149, 147, 145, 140, 137, 135, 133, 129, 128, 127, 126, 126, 126, 125, 125, 123, 122, 121, 120, 119, 117, 117, 117, 117, 117, 116, 115, 115, 114, 114, 114, 114, 114, 114, 114, 114, 114, 114, 114, 114, 114, 114]"
"Trust","Teilnehmer A hat Ihnen 2 Punkte übermittelt.","Payback","1","undefined","12","0","4","60","1080","221","5","1","1380","0","legacy","[11, 21, 31, 41, 51, 61, 71, 81, 91, 101, 111, 121, 131, 141, 151, 161, 171, 181, 191, 201, 211, 221, 231, 241, 251, 261, 271, 281, 291, 301, 311, 321, 331, 341, 351, 361, 371, 381, 391, 401, 411, 421, 431, 441, 451, 461, 471, 481, 491, 501, 511, 521, 531, 541, 551, 561, 571, 581, 591, 601, 611, 621, 631, 641, 651, 661, 671, 681, 691, 701, 711, 721, 731, 741, 751, 761, 771, 781, 791, 801, 811, 821, 831, 841, 851, 861, 871, 881, 891, 901, 911, 921, 931, 941, 951, 961, 971, 981, 991, 1001, 1011, 1021, 1031, 1041, 1051, 1061, 1071, 1081, 1091, 1101, 1111, 1121, 1131, 1141, 1151, 1161, 1171, 1181, 1191, 1201, 1211, 1221, 1231, 1241, 1251, 1261, 1271, 1281, 1291, 1301, 1311, 1321, 1331, 1341, 1351, 1361, 1371]","1114","1920","[960, 960, 960, 960, 960, 960, 960, 960, 960, 960, 960, 960, 960, 960, 956, 950, 947, 936, 931, 924, 920, 910, 902, 897, 890, 874, 866, 860, 852, 838, 830, 823, 816, 796, 783, 769, 752, 719, 708, 698, 689, 673, 664, 657, 650, 631, 622, 610, 598, 575, 565, 557, 549, 538, 532, 527, 521, 511, 506, 501, 497, 491, 486, 484, 481, 474, 470, 465, 459, 443, 435, 430, 426, 421, 418, 416, 412, 406, 403, 401, 400, 395, 390, 388, 383, 373, 368, 364, 361, 357, 355, 353, 349, 339, 331, 320, 312, 299, 295, 290, 286, 275, 267, 261, 252, 239, 234, 227, 223, 212, 207, 204, 199, 192, 191, 189, 188, 188, 188, 188, 186, 186, 185, 185, 185, 185, 185, 185, 185, 185, 185, 185, 185, 185, 185, 185, 185]","[1010, 1010, 1010, 1010, 1010, 1010, 1010, 1010, 1010, 1010, 1010, 1010, 1010, 1009, 1004, 994, 988, 970, 960, 951, 944, 927, 918, 911, 901, 882, 873, 861, 851, 831, 820, 811, 803, 785, 776, 768, 755, 742, 737, 732, 729, 720, 715, 711, 705, 687, 677, 659, 644, 608, 596, 585, 573, 553, 543, 533, 523, 505, 498, 488, 478, 462, 454, 446, 440, 425, 418, 410, 401, 378, 369, 363, 359, 354, 349, 346, 341, 335, 332, 330, 328, 324, 320, 319, 315, 309, 306, 304, 302, 298, 295, 293, 290, 283, 276, 267, 260, 250, 246, 242, 238, 228, 221, 215, 208, 194, 188, 179, 172, 158, 152, 148, 143, 132, 130, 128, 124, 124, 122, 121, 118, 115, 112, 111, 111, 110, 110, 110, 110, 110, 110, 110, 110, 110, 110, 110, 110]"
"Trust","Teilnehmer A hat Ihnen 2 Punkte übermittelt.","Payback","1","undefined","13","0","4","60","1080","261","5","1","1604","0","legacy","[11, 21, 31, 41, 51, 61, 71, 81, 91, 101, 111, 121, 131, 141, 151, 161, 171, 181, 191, 201, 211, 221, 231, 241, 251, 261, 271, 281, 291, 301, 311, 321, 331, 341, 351, 361, 371, 381, 391, 401, 411, 421, 431, 441, 451, 461, 471, 481, 491, 501, 511, 521, 531, 541, 551, 561, 571, 581, 591, 601, 611, 621, 631, 641, 651, 661, 671, 681, 691, 701, 711, 721, 731, 741, 751, 761, 771, 781, 791, 801, 811, 821, 831, 841, 851, 861, 871, 881, 891, 901, 911, 921, 931, 941, 951, 961, 971, 981, 991, 1001, 1011, 1021, 1031, 1041, 1051, 1061, 1071, 1081, 1091, 1101, 1111, 1121, 1131, 1141, 1151, 1161, 1171, 1181, 1191, 1201, 1211, 1221, 1231, 1241, 1251, 1261, 1271, 1281, 1291, 1301, 1311, 1321, 1331, 1341, 1351, 1361, 1371, 1381, 1391, 1401, 1411, 1421, 1431, 1441, 1451, 1461, 1471, 1481, 1491, 1501, 1511, 1521, 1531, 1541, 1551, 1561, 1571, 1581, 1591, 1601]","1114","1920","[960, 960, 960, 960, 960, 960, 960, 960, 960, 960, 960, 959, 955, 948, 944, 940, 939, 936, 936, 935, 934, 927, 922, 917, 912, 898, 887, 876, 858, 824, 805, 788, 769, 728, 712, 703, 691, 666, 650, 633, 613, 581, 566, 552, 533, 501, 487, 472, 464, 452, 446, 442, 438, 425, 417, 410, 403, 394, 392, 387, 386, 382, 381, 377, 375, 370, 365, 361, 355, 348, 340, 337, 330, 319, 314, 309, 307, 302, 299, 298, 296, 292, 290, 290, 288, 286, 284, 284, 283, 281, 280, 280, 280, 278, 276, 276, 275, 273, 271, 270, 265, 259, 254, 252, 248, 242, 240, 238, 235, 233, 232, 232, 232, 231, 231, 231, 231, 231, 231, 231, 231, 231, 231, 231, 231, 231, 231, 231, 231, 231, 231, 231, 231, 231, 231, 231, 231, 231, 231, 231, 231, 231, 231, 231, 231, 231, 231, 231, 231, 231, 231, 231, 231, 231, 231, 231, 231, 231, 231, 231]","[1010, 1010, 1010, 1010, 1010, 1010, 1010, 1010, 1010, 1010, 1010, 1010, 1005, 994, 990, 985, 981, 979, 979, 979, 977, 970, 964, 956, 949, 927, 910, 893, 866, 813, 783, 758, 730, 680, 658, 642, 625, 596, 574, 549, 525, 482, 465, 442, 421, 376, 357, 339, 323, 303, 294, 287, 277, 245, 229, 211, 191, 166, 155, 143, 134, 114, 106, 96, 86, 68, 58, 48, 40, 27, 19, 14, 7, 0, 0, 0, 0, 0, 0, 0, 0, 0, 0, 0, 0, 0, 1, 1, 1, 2, 3, 3, 3, 4, 7, 7, 8, 11, 12, 13, 18, 24, 27, 29, 30, 33, 33, 35, 36, 38, 38, 38, 38, 39, 39, 39, 39, 39, 39, 39, 39, 39, 39, 39, 39, 39, 39, 39, 39, 39, 39, 39, 39, 39, 39, 39, 39, 39, 39, 39, 39, 39, 39, 39, 39, 39, 39, 39, 39, 39, 39, 39, 39, 39, 39, 39, 39, 39, 39, 39]"
"Trust","Teilnehmer A hat Ihnen 2 Punkte übermittelt.","Payback","1","undefined","14","0","4","60","1080","141","5","1","1134","0","legacy","[11, 21, 31, 41, 51, 61, 71, 81, 91, 101, 111, 121, 131, 141, 151, 161, 171, 181, 191, 201, 211, 221, 231, 241, 251, 261, 271, 281, 291, 301, 311, 321, 331, 341, 351, 361, 371, 381, 391, 401, 411, 421, 431, 441, 451, 461, 471, 481, 491, 501, 511, 521, 531, 541, 551, 561, 571, 581, 591, 601, 611, 621, 631, 641, 651, 661, 671, 681, 691, 701, 711, 721, 731, 741, 751, 761, 771, 781, 791, 801, 811, 821, 831, 841, 851, 861, 871, 881, 891, 901, 911, 921, 931, 941, 951, 961, 971, 981, 991, 1001, 1011, 1021, 1031, 1041, 1051, 1061, 1071, 1081, 1091, 1101, 1111, 1121, 1131]","1114","1920","[960, 960, 960, 960, 960, 960, 960, 958, 956, 954, 944, 938, 930, 921, 902, 893, 883, 867, 838, 828, 814, 806, 791, 786, 781, 777, 770, 766, 762, 756, 742, 731, 719, 709, 686, 678, 666, 656, 631, 619, 604, 590, 557, 539, 524, 512, 486, 479, 471, 463, 451, 445, 438, 430, 417, 408, 402, 394, 383, 378, 373, 370, 364, 362, 359, 355, 351, 349, 348, 346, 342, 341, 340, 338, 334, 331, 329, 327, 322, 318, 314, 306, 294, 289, 284, 280, 277, 276, 275, 274, 274, 274, 274, 274, 274, 274, 274, 274, 274, 274, 274, 274, 274, 274, 274, 274, 274, 274, 274, 274, 274, 274, 274]","[1010, 1010, 1010, 1010, 1010, 1010, 1009, 1003, 997, 989, 968, 956, 946, 934, 911, 897, 882, 860, 813, 797, 777, 763, 745, 739, 733, 728, 718, 713, 706, 697, 670, 654, 634, 618, 580, 564, 545, 526, 482, 461, 439, 416, 369, 346, 326, 306, 272, 260, 247, 237, 220, 209, 200, 190, 170, 159, 149, 139, 124, 118, 111, 108, 101, 98, 95, 91, 87, 85, 83, 83, 80, 80, 79, 78, 75, 74, 74, 73, 71, 71, 71, 68, 67, 67, 66, 64, 64, 64, 64, 63, 63, 63, 63, 63, 63, 63, 63, 63, 63, 63, 63, 63, 63, 63, 63, 63, 63, 63, 63, 63, 63, 63, 63]"
"Promise","Wie oft werden Sie die Hälfte zurückgeben?","Promise","1","undefined","14","0","5","60","1080","261","5","1","1168","0","legacy","[11, 21, 31, 41, 51, 61, 71, 81, 91, 101, 111, 121, 131, 141, 151, 161, 171, 181, 191, 201, 211, 221, 231, 241, 251, 261, 271, 281, 291, 301, 311, 321, 331, 341, 351, 361, 371, 381, 391, 401, 411, 421, 431, 441, 451, 461, 471, 481, 491, 501, 511, 521, 531, 541, 551, 561, 571, 581, 591, 601, 611, 621, 631, 641, 651, 661, 671, 681, 691, 701, 711, 721, 731, 741, 751, 761, 771, 781, 791, 801, 811, 821, 831, 841, 851, 861, 871, 881, 891, 901, 911, 921, 931, 941, 951, 961, 971, 981, 991, 1001, 1011, 1021, 1031, 1041, 1051, 1061, 1071, 1081, 1091, 1101, 1111, 1121, 1131, 1141, 1151, 1161]","1114","1920","[960, 960, 960, 960, 960, 960, 960, 960, 960, 960, 960, 960, 960, 960, 960, 960, 960, 960, 960, 960, 960, 960, 960, 946, 937, 924, 915, 895, 887, 875, 866, 843, 828, 817, 799, 778, 771, 761, 752, 736, 727, 717, 705, 676, 661, 643, 625, 593, 574, 552, 532, 484, 464, 445, 423, 390, 377, 366, 356, 336, 324, 309, 294, 268, 257, 248, 241, 229, 223, 218, 213, 204, 199, 194, 189, 174, 167, 162, 157, 149, 148, 146, 146, 146, 145, 145, 145, 144, 144, 143, 143, 143, 143, 143, 143, 143, 143, 143, 143, 143, 143, 143, 143, 143, 143, 143, 143, 143, 143, 143, 143, 143, 143, 143, 143, 143]","[1010, 1010, 1010, 1010, 1010, 1010, 1010, 1010, 1010, 1010, 1010, 1010, 1010, 1010, 1010, 1010, 1010, 1010, 1010, 1010, 1010, 1009, 998, 972, 946, 922, 899, 864, 848, 829, 815, 770, 745, 719, 691, 649, 635, 619, 603, 581, 567, 555, 540, 511, 493, 470, 447, 409, 388, 367, 351, 316, 301, 289, 277, 258, 250, 244, 238, 224, 216, 204, 194, 177, 170, 165, 161, 155, 152, 149, 146, 143, 141, 138, 136, 130, 127, 125, 122, 118, 118, 117, 116, 116, 116, 116, 115, 114, 114, 113, 113, 112, 111, 111, 111, 111, 111, 111, 111, 111, 111, 111, 111, 111, 111, 111, 111, 111, 111, 111, 111, 111, 111, 111, 111, 111]"
"Trust","Teilnehmer A hat Ihnen 2 Punkte übermittelt.","Payback","1","undefined","15","0","5","60","1080","161","5","1","1254","0","legacy","[11, 21, 31, 41, 51, 61, 71, 81, 91, 101, 111, 121, 131, 141, 151, 161, 171, 181, 191, 201, 211, 221, 231, 241, 251, 261, 271, 281, 291, 301, 311, 321, 331, 341, 351, 361, 371, 381, 391, 401, 411, 421, 431, 441, 451, 461, 471, 481, 491, 501, 511, 521, 531, 541, 551, 561, 571, 581, 591, 601, 611, 621, 631, 641, 651, 661, 671, 681, 691, 701, 711, 721, 731, 741, 751, 761, 771, 781, 791, 801, 811, 821, 831, 841, 851, 861, 871, 881, 891, 901, 911, 921, 931, 941, 951, 961, 971, 981, 991, 1001, 1011, 1021, 1031, 1041, 1051, 1061, 1071, 1081, 1091, 1101, 1111, 1121, 1131, 1141, 1151, 1161, 1171, 1181, 1191, 1201, 1211, 1221, 1231, 1241, 1251]","1114","1920","[960, 960, 960, 960, 960, 960, 959, 958, 953, 950, 941, 937, 932, 927, 912, 893, 877, 851, 792, 759, 725, 690, 609, 562, 513, 480, 398, 361, 335, 309, 268, 253, 240, 230, 215, 209, 203, 200, 193, 188, 184, 179, 167, 159, 153, 146, 137, 133, 132, 131, 129, 128, 128, 128, 126, 126, 126, 126, 126, 126, 126, 126, 125, 125, 125, 125, 125, 125, 125, 125, 125, 125, 125, 125, 125, 125, 125, 125, 125, 125, 125, 121, 120, 119, 118, 118, 117, 117, 117, 117, 117, 116, 116, 116, 116, 116, 116, 116, 116, 116, 116, 116, 116, 116, 116, 116, 116, 116, 116, 116, 116, 116, 116, 116, 116, 116, 116, 116, 116, 116, 116, 116, 116, 116, 116]","[1010, 1010, 1010, 1010, 1010, 1010, 1010, 1010, 1009, 1004, 991, 986, 978, 971, 951, 926, 903, 872, 793, 756, 716, 683, 592, 555, 513, 488, 422, 393, 373, 350, 315, 301, 291, 282, 268, 263, 257, 253, 246, 241, 236, 228, 213, 204, 195, 189, 178, 174, 172, 169, 166, 164, 162, 162, 158, 158, 156, 154, 152, 152, 151, 151, 149, 149, 149, 149, 149, 149, 149, 149, 149, 149, 149, 149, 149, 149, 149, 149, 148, 146, 145, 141, 138, 136, 136, 136, 135, 134, 134, 134, 134, 133, 133, 133, 133, 133, 133, 133, 133, 133, 133, 133, 133, 133, 133, 133, 133, 133, 133, 133, 133, 133, 133, 133, 133, 133, 133, 133, 133, 133, 133, 133, 133, 133, 133]"
"Trust","Teilnehmer A hat Ihnen 2 Punkte übermittelt.","Payback","1","undefined","16","0","5","60","1080","231","5","1","1342","0","legacy","[11, 21, 31, 41, 51, 61, 71, 81, 91, 101, 111, 121, 131, 141, 151, 161, 171, 181, 191, 201, 211, 221, 231, 241, 251, 261, 271, 281, 291, 301, 311, 321, 331, 341, 351, 361, 371, 381, 391, 401, 411, 421, 431, 441, 451, 461, 471, 481, 491, 501, 511, 521, 531, 541, 551, 561, 571, 581, 591, 601, 611, 621, 631, 641, 651, 661, 671, 681, 691, 701, 711, 721, 731, 741, 751, 761, 771, 781, 791, 801, 811, 821, 831, 841, 851, 861, 871, 881, 891, 901, 911, 921, 931, 941, 951, 961, 971, 981, 991, 1001, 1011, 1021, 1031, 1041, 1051, 1061, 1071, 1081, 1091, 1101, 1111, 1121, 1131, 1141, 1151, 1161, 1171, 1181, 1191, 1201, 1211, 1221, 1231, 1241, 1251, 1261, 1271, 1281, 1291, 1301, 1311, 1321, 1331, 1341]","1114","1920","[960, 960, 960, 960, 959, 959, 959, 959, 959, 959, 959, 959, 959, 959, 959, 959, 959, 959, 957, 952, 941, 917, 857, 827, 800, 779, 742, 727, 713, 703, 684, 673, 664, 654, 638, 634, 626, 622, 613, 605, 601, 594, 574, 561, 546, 529, 500, 493, 484, 476, 460, 451, 442, 432, 415, 407, 396, 389, 371, 363, 354, 347, 333, 326, 318, 311, 297, 289, 281, 275, 258, 250, 241, 234, 218, 213, 207, 199, 187, 182, 178, 175, 170, 168, 167, 166, 164, 162, 162, 162, 161, 161, 161, 161, 161, 161, 161, 161, 161, 161, 161, 161, 161, 161, 161, 161, 161, 161, 161, 161, 161, 161, 161, 161, 161, 161, 161, 161, 161, 161, 161, 161, 161, 161, 161, 161, 161, 161, 161, 161, 161, 161, 161, 161]","[1010, 1010, 1010, 1010, 1010, 1010, 1010, 1010, 1010, 1010, 1010, 1010, 1010, 1010, 1010, 1010, 1010, 1010, 1010, 1001, 983, 952, 866, 824, 788, 759, 718, 700, 682, 670, 642, 627, 611, 599, 576, 570, 561, 556, 546, 540, 535, 527, 509, 499, 487, 475, 454, 448, 442, 437, 423, 415, 407, 399, 381, 371, 360, 353, 336, 327, 318, 310, 292, 285, 276, 269, 255, 248, 239, 231, 212, 202, 193, 185, 166, 158, 148, 137, 120, 114, 104, 99, 88, 84, 81, 78, 75, 73, 73, 72, 71, 71, 71, 71, 71, 71, 71, 71, 71, 71, 71, 71, 71, 71, 71, 71, 71, 71, 71, 71, 71, 71, 71, 71, 71, 71, 71, 71, 71, 71, 71, 71, 71, 71, 71, 71, 71, 71, 71, 71, 71, 71, 71, 71]"
"NoTrust","Teilnehmer A hat Ihnen keine 2 Punkte übermittelt.","Payback","1","undefined","17","0","5","60","1080","231","0","1","1342","0","legacy","[11, 21, 31, 41, 51, 61, 71, 81, 91, 101, 111, 121, 131, 141, 151, 161, 171, 181, 191, 201, 211, 221, 231, 241, 251, 261, 271, 281, 291, 301, 311, 321, 331, 341, 351, 361, 371, 381, 391, 401, 411, 421, 431, 441, 451, 461, 471, 481, 491, 501, 511, 521, 531, 541, 551, 561, 571, 581, 591, 601, 611, 621, 631, 641, 651, 661, 671, 681, 691, 701, 711, 721, 731, 741, 751, 761, 771, 781, 791, 801, 811, 821, 831, 841, 851, 861, 871, 881, 891, 901, 911, 921, 931, 941, 951, 961, 971, 981, 991, 1001, 1011, 1021, 1031, 1041, 1051, 1061, 1071, 1081, 1091, 1101, 1111, 1121, 1131, 1141, 1151, 1161, 1171, 1181, 1191, 1201, 1211, 1221, 1231, 1241, 1251, 1261, 1271, 1281, 1291, 1301, 1311, 1321, 1331, 1341]","1114","1920","[960, 960, 960, 960, 959, 959, 959, 959, 959, 959, 959, 959, 959, 959, 959, 959, 959, 959, 957, 952, 941, 917, 857, 827, 800, 779, 742, 727, 713, 703, 684, 673, 664, 654, 638, 634, 626, 622, 613, 605, 601, 594, 574, 561, 546, 529, 500, 493, 484, 476, 460, 451, 442, 432, 415, 407, 396, 389, 371, 363, 354, 347, 333, 326, 318, 311, 297, 289, 281, 275, 258, 250, 241, 234, 218, 213, 207, 199, 187, 182, 178, 175, 170, 168, 167, 166, 164, 162, 162, 162, 161, 161, 161, 161, 161, 161, 161, 161, 161, 161, 161, 161, 161, 161, 161, 161, 161, 161, 161, 161, 161, 161, 161, 161, 161, 161, 161, 161, 161, 161, 161, 161, 161, 161, 161, 161, 161, 161, 161, 161, 161, 161, 161, 161]","[1010, 1010, 1010, 1010, 1010, 1010, 1010, 1010, 1010, 1010, 1010, 1010, 1010, 1010, 1010, 1010, 1010, 1010, 1010, 1001, 983, 952, 866, 824, 788, 759, 718, 700, 682, 670, 642, 627, 611, 599, 576, 570, 561, 556, 546, 540, 535, 527, 509, 499, 487, 475, 454, 448, 442, 437, 423, 415, 407, 399, 381, 371, 360, 353, 336, 327, 318, 310, 292, 285, 276, 269, 255, 248, 239, 231, 212, 202, 193, 185, 166, 158, 148, 137, 120, 114, 104, 99, 88, 84, 81, 78, 75, 73, 73, 72, 71, 71, 71, 71, 71, 71, 71, 71, 71, 71, 71, 71, 71, 71, 71, 71, 71, 71, 71, 71, 71, 71, 71, 71, 71, 71, 71, 71, 71, 71, 71, 71, 71, 71, 71, 71, 71, 71, 71, 71, 71, 71, 71, 71]"
"Promise","Wie oft werden Sie die Hälfte zurückgeben?","Promise","1","undefined","17","0","6","60","1080","311","0","1","1086","0","legacy","[11, 21, 31, 41, 51, 61, 71, 81, 91, 101, 111, 121, 131, 141, 151, 161, 171, 181, 191, 201, 211, 221, 231, 241, 251, 261, 271, 281, 291, 301, 311, 321, 331, 341, 351, 361, 371, 381, 391, 401, 411, 421, 431, 441, 451, 461, 471, 481, 491, 501, 511, 521, 531, 541, 551, 561, 571, 581, 591, 601, 611, 621, 631, 641, 651, 661, 671, 681, 691, 701, 711, 721, 731, 741, 751, 761, 771, 781, 791, 801, 811, 821, 831, 841, 851, 861, 871, 881, 891, 901, 911, 921, 931, 941, 951, 961, 971, 981, 991, 1001, 1011, 1021, 1031, 1041, 1051, 1061, 1071, 1081]","1114","1920","[960, 960, 960, 960, 960, 960, 960, 960, 960, 960, 960, 960, 960, 960, 960, 960, 960, 960, 960, 960, 960, 960, 960, 960, 960, 960, 955, 945, 933, 921, 895, 876, 862, 843, 800, 778, 754, 735, 695, 681, 668, 661, 647, 641, 636, 632, 619, 612, 603, 595, 572, 553, 531, 509, 467, 445, 419, 399, 361, 346, 328, 318, 303, 298, 295, 292, 287, 285, 282, 282, 279, 278, 277, 275, 273, 272, 271, 269, 265, 259, 258, 256, 252, 251, 250, 250, 250, 250, 250, 250, 248, 245, 244, 243, 242, 242, 242, 242, 242, 242, 242, 242, 242, 242, 242, 242, 242, 242]","[1010, 1010, 1010, 1010, 1010, 1010, 1010, 1010, 1010, 1010, 1010, 1010, 1010, 1010, 1010, 1010, 1010, 1010, 1010, 1010, 1010, 1010, 1010, 1010, 1010, 1010, 1011, 1001, 988, 973, 938, 913, 890, 863, 803, 773, 742, 711, 648, 621, 597, 577, 546, 533, 522, 516, 495, 485, 473, 462, 429, 406, 382, 356, 309, 288, 267, 250, 219, 205, 191, 178, 159, 153, 148, 144, 140, 140, 138, 138, 137, 136, 136, 136, 136, 136, 134, 134, 134, 133, 133, 132, 130, 129, 129, 129, 129, 129, 129, 129, 129, 129, 128, 128, 128, 128, 128, 128, 128, 128, 128, 128, 128, 128, 128, 128, 128, 128]"
"Trust","Teilnehmer A hat Ihnen 2 Punkte übermittelt.","Payback","1","undefined","18","0","6","60","1080","191","5","1","1062","0","legacy","[11, 21, 31, 41, 51, 61, 71, 81, 91, 101, 111, 121, 131, 141, 151, 161, 171, 181, 191, 201, 211, 221, 231, 241, 251, 261, 271, 281, 291, 301, 311, 321, 331, 341, 351, 361, 371, 381, 391, 401, 411, 421, 431, 441, 451, 461, 471, 481, 491, 501, 511, 521, 531, 541, 551, 561, 571, 581, 591, 601, 611, 621, 631, 641, 651, 661, 671, 681, 691, 701, 711, 721, 731, 741, 751, 761, 771, 781, 791, 801, 811, 821, 831, 841, 851, 861, 871, 881, 891, 901, 911, 921, 931, 941, 951, 961, 971, 981, 991, 1001, 1011, 1021, 1031, 1041, 1051, 1061]","1114","1920","[960, 960, 960, 960, 960, 960, 959, 959, 958, 957, 945, 939, 930, 923, 902, 889, 877, 865, 822, 797, 779, 758, 724, 714, 705, 697, 682, 673, 667, 660, 646, 637, 624, 614, 576, 561, 540, 523, 498, 487, 478, 470, 456, 451, 446, 443, 435, 429, 423, 416, 403, 394, 388, 380, 364, 356, 346, 342, 327, 320, 313, 303, 273, 259, 238, 227, 189, 179, 169, 159, 146, 142, 139, 136, 130, 129, 127, 126, 125, 125, 125, 123, 123, 123, 123, 122, 122, 122, 122, 122, 122, 122, 122, 122, 122, 122, 122, 122, 122, 122, 122, 122, 122, 122, 122, 122]","[1010, 1010, 1010, 1010, 1010, 1010, 1010, 1010, 1010, 1010, 1008, 1003, 997, 991, 974, 962, 953, 941, 900, 874, 848, 823, 784, 772, 760, 750, 730, 719, 710, 700, 678, 665, 647, 629, 566, 538, 510, 485, 457, 447, 435, 425, 404, 394, 386, 380, 362, 353, 344, 337, 320, 315, 310, 304, 293, 289, 284, 281, 271, 266, 260, 254, 235, 226, 215, 208, 190, 183, 176, 167, 153, 146, 141, 135, 123, 120, 116, 113, 109, 107, 105, 102, 101, 100, 100, 100, 100, 100, 100, 100, 100, 100, 100, 100, 100, 100, 100, 100, 100, 100, 100, 100, 100, 100, 100, 100]"
"Trust","Teilnehmer A hat Ihnen 2 Punkte übermittelt.","Payback","1","undefined","19","0","6","60","1080","231","5","1","1181","0","legacy","[11, 21, 31, 41, 51, 61, 71, 81, 91, 101, 111, 121, 131, 141, 151, 161, 171, 181, 191, 201, 211, 221, 231, 241, 251, 261, 271, 281, 291, 301, 311, 321, 331, 341, 351, 361, 371, 381, 391, 401, 411, 421, 431, 441, 451, 461, 471, 481, 491, 501, 511, 521, 531, 541, 551, 561, 571, 581, 591, 601, 611, 621, 631, 641, 651, 661, 671, 681, 691, 701, 711, 721, 731, 741, 751, 761, 771, 781, 791, 801, 811, 821, 831, 841, 851, 861, 871, 881, 891, 901, 911, 921, 931, 941, 951, 961, 971, 981, 991, 1001, 1011, 1021, 1031, 1041, 1051, 1061, 1071, 1081, 1091, 1101, 1111, 1121, 1131, 1141, 1151, 1161, 1171, 1181]","1114","1920","[960, 960, 960, 960, 960, 960, 960, 960, 960, 960, 960, 960, 960, 960, 960, 959, 955, 952, 943, 937, 929, 922, 892, 873, 849, 828, 779, 759, 736, 723, 696, 688, 679, 671, 661, 655, 651, 648, 640, 632, 624, 618, 601, 592, 584, 576, 565, 562, 556, 552, 542, 537, 531, 525, 510, 501, 490, 478, 456, 443, 429, 410, 375, 355, 334, 312, 280, 264, 254, 244, 226, 217, 212, 206, 194, 189, 181, 175, 160, 154, 148, 142, 134, 131, 128, 126, 123, 122, 119, 118, 118, 118, 118, 118, 118, 118, 118, 118, 118, 118, 118, 118, 118, 118, 118, 118, 118, 118, 118, 118, 118, 118, 118, 118, 118, 118, 118, 118]","[1010, 1010, 1010, 1010, 1010, 1010, 1010, 1010, 1010, 1010, 1010, 1010, 1010, 1010, 1010, 1010, 1005, 999, 981, 970, 959, 951, 913, 887, 863, 844, 803, 787, 769, 756, 730, 719, 710, 699, 686, 679, 671, 665, 650, 640, 630, 621, 599, 589, 579, 570, 553, 546, 537, 526, 506, 496, 486, 476, 455, 443, 429, 414, 387, 371, 355, 337, 302, 286, 269, 255, 231, 222, 215, 207, 192, 185, 178, 171, 154, 146, 138, 130, 115, 107, 99, 92, 79, 74, 69, 63, 54, 51, 47, 46, 43, 42, 42, 41, 41, 41, 41, 41, 41, 41, 41, 41, 41, 41, 41, 41, 41, 41, 41, 41, 41, 41, 41, 41, 41, 41, 41, 41]"
"Trust","Teilnehmer A hat Ihnen 2 Punkte übermittelt.","Payback","1","undefined","20","0","6","60","1080","281","5","1","1268","0","legacy","[11, 21, 31, 41, 51, 61, 71, 81, 91, 101, 111, 121, 131, 141, 151, 161, 171, 181, 191, 201, 211, 221, 231, 241, 251, 261, 271, 281, 291, 301, 311, 321, 331, 341, 351, 361, 371, 381, 391, 401, 411, 421, 431, 441, 451, 461, 471, 481, 491, 501, 511, 521, 531, 541, 551, 561, 571, 581, 591, 601, 611, 621, 631, 641, 651, 661, 671, 681, 691, 701, 711, 721, 731, 741, 751, 761, 771, 781, 791, 801, 811, 821, 831, 841, 851, 861, 871, 881, 891, 901, 911, 921, 931, 941, 951, 961, 971, 981, 991, 1001, 1011, 1021, 1031, 1041, 1051, 1061, 1071, 1081, 1091, 1101, 1111, 1121, 1131, 1141, 1151, 1161, 1171, 1181, 1191, 1201, 1211, 1221, 1231, 1241, 1251, 1261]","1114","1920","[960, 960, 960, 960, 960, 960, 960, 960, 960, 960, 960, 960, 960, 960, 960, 960, 960, 960, 960, 960, 960, 961, 961, 960, 955, 943, 929, 913, 891, 846, 818, 796, 768, 728, 705, 692, 678, 655, 646, 637, 630, 620, 616, 613, 610, 600, 595, 591, 588, 576, 572, 564, 559, 547, 540, 533, 525, 503, 493, 480, 470, 453, 446, 437, 428, 415, 409, 401, 394, 379, 370, 364, 356, 338, 332, 324, 318, 304, 295, 288, 283, 272, 267, 263, 261, 257, 254, 253, 252, 247, 247, 244, 244, 241, 239, 236, 235, 234, 231, 230, 230, 228, 227, 227, 226, 226, 226, 226, 226, 226, 226, 226, 226, 226, 226, 226, 226, 226, 226, 226, 226, 226, 226, 226, 226, 226]","[1010, 1010, 1010, 1010, 1010, 1010, 1010, 1010, 1010, 1010, 1010, 1010, 1010, 1010, 1010, 1010, 1010, 1010, 1010, 1010, 1010, 1009, 1003, 994, 983, 963, 941, 918, 890, 828, 799, 773, 743, 705, 685, 672, 659, 635, 626, 616, 607, 595, 591, 587, 584, 571, 565, 559, 553, 536, 530, 523, 512, 497, 488, 480, 468, 443, 433, 421, 413, 393, 383, 373, 366, 353, 347, 342, 337, 327, 321, 316, 309, 295, 287, 282, 276, 260, 252, 246, 241, 226, 220, 214, 208, 198, 192, 190, 186, 175, 173, 166, 163, 154, 150, 145, 142, 134, 131, 128, 125, 121, 118, 117, 116, 115, 115, 115, 115, 115, 115, 115, 115, 115, 115, 115, 115, 115, 115, 115, 115, 115, 115, 115, 115, 115]"
"Promise","Wie oft werden Sie die Hälfte zurückgeben?","Promise","1","undefined","20","0","7","60","1080","361","5","1","928","0","legacy","[11, 21, 31, 41, 51, 61, 71, 81, 91, 101, 111, 121, 131, 141, 151, 161, 171, 181, 191, 201, 211, 221, 231, 241, 251, 261, 271, 281, 291, 301, 311, 321, 331, 341, 351, 361, 371, 381, 391, 401, 411, 421, 431, 441, 451, 461, 471, 481, 491, 501, 511, 521, 531, 541, 551, 561, 571, 581, 591, 601, 611, 621, 631, 641, 651, 661, 671, 681, 691, 701, 711, 721, 731, 741, 751, 761, 771, 781, 791, 801, 811, 821, 831, 841, 851, 861, 871, 881, 891, 901, 911, 921]","1114","1920","[960, 960, 960, 960, 959, 958, 957, 956, 956, 956, 954, 946, 942, 936, 933, 927, 925, 924, 924, 924, 924, 924, 924, 924, 924, 924, 924, 924, 923, 921, 916, 904, 895, 885, 871, 837, 817, 798, 777, 731, 701, 683, 662, 624, 606, 588, 564, 514, 484, 459, 435, 399, 383, 371, 364, 344, 336, 322, 312, 296, 289, 281, 273, 259, 254, 249, 243, 236, 230, 225, 220, 213, 209, 204, 200, 191, 186, 180, 175, 169, 169, 169, 169, 169, 169, 169, 169, 169, 169, 169, 169, 169]","[1010, 1010, 1010, 1009, 1009, 1009, 1009, 1009, 1009, 1009, 1009, 1009, 1009, 1007, 1006, 1005, 1003, 1003, 1003, 1003, 1003, 1003, 1003, 1003, 1003, 1003, 1003, 1003, 1003, 1003, 1000, 986, 974, 958, 943, 904, 880, 860, 840, 804, 786, 773, 761, 733, 716, 699, 666, 581, 536, 498, 464, 413, 395, 378, 365, 328, 310, 283, 262, 223, 210, 198, 188, 170, 163, 157, 148, 133, 124, 114, 107, 93, 87, 80, 75, 61, 54, 46, 41, 34, 34, 34, 34, 34, 34, 34, 34, 34, 34, 34, 34, 34]"
"Trust","Teilnehmer A hat Ihnen 2 Punkte übermittelt.","Payback","1","undefined","21","0","7","60","1080","351","5","1","1822","0","legacy","[11, 21, 31, 41, 51, 61, 71, 81, 91, 101, 111, 121, 131, 141, 151, 161, 171, 181, 191, 201, 211, 221, 231, 241, 251, 261, 271, 281, 291, 301, 311, 321, 331, 341, 351, 361, 371, 381, 391, 401, 411, 421, 431, 441, 451, 461, 471, 481, 491, 501, 511, 521, 531, 541, 551, 561, 571, 581, 591, 601, 611, 621, 631, 641, 651, 661, 671, 681, 691, 701, 711, 721, 731, 741, 751, 761, 771, 781, 791, 801, 811, 821, 831, 841, 851, 861, 871, 881, 891, 901, 911, 921, 931, 941, 951, 961, 971, 981, 991, 1001, 1011, 1021, 1031, 1041, 1051, 1061, 1071, 1081, 1091, 1101, 1111, 1121, 1131, 1141, 1151, 1161, 1171, 1181, 1191, 1201, 1211, 1221, 1231, 1241, 1251, 1261, 1271, 1281, 1291, 1301, 1311, 1321, 1331, 1341, 1351, 1361, 1371, 1381, 1391, 1401, 1411, 1421, 1431, 1441, 1451, 1461, 1471, 1481, 1491, 1501, 1511, 1521, 1531, 1541, 1551, 1561, 1571, 1581, 1591, 1601, 1611, 1621, 1631, 1641, 1651, 1661, 1671, 1681, 1691, 1701, 1711, 1721, 1731, 1741, 1751, 1761, 1771, 1781, 1791, 1801, 1811, 1821]","1114","1920","[960, 960, 960, 960, 960, 960, 960, 960, 960, 960, 960, 960, 960, 960, 960, 960, 960, 960, 960, 960, 960, 959, 955, 953, 951, 948, 944, 944, 942, 938, 932, 927, 923, 921, 914, 911, 907, 903, 895, 891, 885, 881, 874, 874, 871, 870, 868, 866, 864, 861, 852, 850, 846, 842, 835, 832, 829, 826, 817, 810, 802, 790, 771, 763, 756, 748, 733, 728, 722, 715, 703, 696, 686, 678, 657, 652, 645, 641, 629, 623, 618, 613, 603, 596, 590, 581, 565, 556, 548, 542, 529, 524, 521, 515, 504, 498, 491, 483, 466, 456, 447, 438, 422, 417, 414, 407, 399, 395, 392, 388, 379, 375, 370, 366, 353, 347, 340, 336, 320, 311, 303, 293, 279, 273, 268, 262, 251, 246, 241, 236, 229, 225, 221, 217, 213, 209, 207, 206, 206, 205, 205, 205, 205, 205, 205, 205, 205, 205, 205, 205, 205, 205, 205, 205, 203, 201, 200, 199, 195, 194, 192, 192, 191, 191, 191, 191, 191, 191, 191, 190, 190, 190, 190, 190, 190, 190, 190, 190, 190, 190, 190, 190]","[1010, 1010, 1010, 1010, 1010, 1010, 1010, 1010, 1010, 1010, 1010, 1010, 1010, 1010, 1010, 1010, 1010, 1010, 1010, 1010, 1011, 1011, 1008, 1004, 1002, 998, 994, 991, 987, 981, 966, 960, 951, 948, 936, 931, 925, 916, 899, 889, 878, 871, 859, 855, 851, 847, 843, 840, 835, 827, 813, 810, 805, 798, 785, 778, 772, 766, 752, 741, 725, 706, 683, 671, 661, 651, 629, 618, 609, 600, 581, 568, 554, 542, 520, 511, 502, 495, 479, 472, 464, 458, 446, 438, 430, 420, 402, 393, 385, 379, 369, 365, 361, 355, 344, 338, 333, 326, 315, 307, 301, 295, 284, 280, 278, 274, 268, 264, 264, 260, 254, 251, 249, 245, 236, 232, 228, 224, 212, 207, 203, 196, 186, 182, 178, 174, 166, 161, 157, 154, 149, 146, 143, 141, 138, 136, 135, 134, 134, 133, 133, 133, 133, 133, 133, 133, 133, 133, 133, 133, 133, 133, 133, 133, 131, 129, 128, 125, 122, 119, 118, 118, 117, 117, 117, 117, 117, 117, 117, 116, 116, 116, 116, 116, 116, 116, 116, 116, 116, 116, 116, 116]"
"Trust","Teilnehmer A hat Ihnen 2 Punkte übermittelt.","Payback","1","undefined","22","0","7","60","1080","261","5","1","1045","0","legacy","[11, 21, 31, 41, 51, 61, 71, 81, 91, 101, 111, 121, 131, 141, 151, 161, 171, 181, 191, 201, 211, 221, 231, 241, 251, 261, 271, 281, 291, 301, 311, 321, 331, 341, 351, 361, 371, 381, 391, 401, 411, 421, 431, 441, 451, 461, 471, 481, 491, 501, 511, 521, 531, 541, 551, 561, 571, 581, 591, 601, 611, 621, 631, 641, 651, 661, 671, 681, 691, 701, 711, 721, 731, 741, 751, 761, 771, 781, 791, 801, 811, 821, 831, 841, 851, 861, 871, 881, 891, 901, 911, 921, 931, 941, 951, 961, 971, 981, 991, 1001, 1011, 1021, 1031, 1041]","1114","1920","[960, 960, 960, 960, 960, 960, 960, 960, 960, 960, 960, 961, 961, 961, 961, 960, 957, 954, 948, 945, 940, 935, 927, 922, 915, 902, 861, 842, 814, 791, 745, 721, 703, 681, 645, 627, 606, 585, 544, 527, 517, 505, 482, 472, 464, 452, 432, 422, 412, 404, 382, 373, 361, 353, 334, 328, 322, 314, 305, 300, 291, 284, 272, 265, 257, 250, 235, 229, 222, 217, 207, 203, 199, 195, 191, 191, 189, 189, 188, 188, 188, 188, 188, 188, 188, 188, 188, 188, 188, 188, 188, 188, 188, 188, 188, 188, 188, 188, 188, 188, 188, 188, 188, 188]","[1010, 1010, 1010, 1010, 1010, 1010, 1010, 1010, 1010, 1010, 1010, 1010, 1010, 1010, 1010, 1010, 1009, 1006, 996, 992, 985, 977, 965, 958, 950, 936, 891, 870, 841, 815, 764, 742, 722, 698, 659, 640, 621, 603, 570, 557, 547, 538, 516, 502, 492, 480, 457, 448, 434, 425, 397, 385, 370, 354, 328, 313, 302, 288, 271, 261, 247, 237, 217, 206, 195, 185, 164, 156, 147, 140, 128, 123, 121, 117, 113, 112, 110, 110, 109, 109, 109, 109, 109, 109, 109, 109, 109, 109, 109, 109, 109, 109, 109, 109, 109, 109, 109, 109, 109, 109, 109, 109, 109, 109]"
"Trust","Teilnehmer A hat Ihnen 2 Punkte übermittelt.","Payback","1","undefined","23","0","7","60","1080","241","5","1","1053","0","legacy","[11, 21, 31, 41, 51, 61, 71, 81, 91, 101, 111, 121, 131, 141, 151, 161, 171, 181, 191, 201, 211, 221, 231, 241, 251, 261, 271, 281, 291, 301, 311, 321, 331, 341, 351, 361, 371, 381, 391, 401, 411, 421, 431, 441, 451, 461, 471, 481, 491, 501, 511, 521, 531, 541, 551, 561, 571, 581, 591, 601, 611, 621, 631, 641, 651, 661, 671, 681, 691, 701, 711, 721, 731, 741, 751, 761, 771, 781, 791, 801, 811, 821, 831, 841, 851, 861, 871, 881, 891, 901, 911, 921, 931, 941, 951, 961, 971, 981, 991, 1001, 1011, 1021, 1031, 1041, 1051]","1114","1920","[960, 960, 960, 960, 960, 960, 960, 960, 960, 960, 960, 960, 960, 960, 960, 959, 959, 956, 950, 947, 942, 936, 919, 906, 890, 874, 837, 818, 801, 785, 750, 735, 724, 710, 697, 691, 687, 681, 668, 659, 644, 632, 592, 568, 549, 528, 500, 492, 487, 484, 474, 468, 463, 456, 441, 436, 429, 424, 415, 411, 407, 404, 395, 385, 368, 350, 309, 293, 284, 276, 261, 253, 246, 244, 239, 239, 236, 233, 224, 219, 212, 206, 190, 185, 182, 179, 179, 179, 179, 179, 179, 179, 179, 179, 179, 179, 179, 179, 179, 179, 179, 179, 179, 179, 179]","[1010, 1010, 1010, 1010, 1010, 1010, 1010, 1010, 1010, 1010, 1010, 1010, 1010, 1010, 1011, 1011, 1011, 1010, 1001, 995, 986, 974, 945, 925, 905, 883, 834, 813, 795, 777, 742, 728, 716, 703, 686, 679, 674, 666, 645, 631, 613, 592, 536, 504, 476, 451, 416, 405, 397, 389, 372, 364, 354, 341, 318, 304, 295, 285, 273, 267, 259, 251, 232, 218, 193, 168, 119, 103, 95, 89, 81, 79, 75, 74, 71, 71, 70, 68, 63, 59, 56, 52, 44, 42, 41, 39, 39, 39, 39, 39, 39, 39, 39, 39, 39, 39, 39, 39, 39, 39, 39, 39, 39, 39, 39]"
CHF,TotCHF,final_payoff,sum
"10","30","[5, 5, 5, 5]","20"
