Condition,PromiseStage,Stage,accuracy,avg_rt,count_decision_sequence,count_loop1,count_trial_sequence,font_size,height,init_time,payoff,response,rt,subject_nr,synth_backend,tTrajectory,time_experiment,width,xTrajectory,yTrajectory
"Promise","Wie oft werden Sie die Hälfte zurückgeben?","Promise","1","undefined","NA","0","0","60","1080","191","NA","1","1704","0","legacy","[11, 21, 31, 41, 51, 61, 71, 81, 91, 101, 111, 121, 131, 141, 151, 161, 171, 181, 191, 201, 211, 221, 231, 241, 251, 261, 271, 281, 291, 301, 311, 321, 331, 341, 351, 361, 371, 381, 391, 401, 411, 421, 431, 441, 451, 461, 471, 481, 491, 501, 511, 521, 531, 541, 551, 561, 571, 581, 591, 601, 611, 621, 631, 641, 651, 661, 671, 681, 691, 701, 711, 721, 731, 741, 751, 761, 771, 781, 791, 801, 811, 821, 831, 841, 851, 861, 871, 881, 891, 901, 911, 921, 931, 941, 951, 961, 971, 981, 991, 1001, 1011, 1021, 1031, 1041, 1051, 1061, 1071, 1081, 1091, 1101, 1111, 1121, 1131, 1141, 1151, 1161, 1171, 1181, 1191, 1201, 1211, 1221, 1231, 1241, 1251, 1261, 1271, 1281, 1291, 1301, 1311, 1321, 1331, 1341, 1351, 1361, 1371, 1381, 1391, 1401, 1411, 1421, 1431, 1441, 1451, 1461, 1471, 1481, 1491, 1501, 1511, 1521, 1531, 1541, 1551, 1561, 1571, 1581, 1591, 1601, 1611, 1621, 1631, 1641, 1651, 1661, 1671, 1681, 1691, 1701]","1179","1920","[960, 960, 960, 960, 960, 960, 959, 957, 955, 955, 953, 951, 950, 948, 942, 932, 926, 923, 919, 908, 902, 898, 891, 880, 874, 868, 864, 856, 853, 852, 847, 840, 838, 834, 829, 821, 817, 811, 807, 797, 791, 786, 780, 768, 765, 758, 754, 745, 742, 739, 736, 729, 724, 720, 717, 712, 707, 702, 698, 688, 685, 681, 676, 667, 665, 662, 656, 649, 645, 641, 638, 629, 625, 621, 615, 609, 605, 601, 597, 589, 585, 580, 577, 569, 567, 562, 555, 548, 544, 539, 536, 528, 522, 519, 515, 507, 502, 499, 492, 484, 480, 476, 473, 466, 461, 456, 452, 440, 436, 429, 423, 415, 410, 406, 402, 398, 394, 393, 390, 383, 377, 374, 369, 361, 357, 351, 346, 339, 333, 330, 326, 315, 311, 308, 303, 294, 290, 286, 283, 277, 274, 271, 269, 263, 259, 257, 252, 244, 240, 235, 232, 227, 225, 223, 221, 218, 216, 215, 214, 212, 211, 211, 211, 209, 208, 207, 205, 205, 205, 205]","[1010, 1010, 1010, 1010, 1010, 1010, 1009, 1005, 1003, 1002, 999, 994, 990, 985, 975, 958, 948, 940, 930, 910, 899, 889, 879, 857, 847, 834, 824, 803, 793, 785, 774, 753, 742, 732, 722, 700, 690, 676, 666, 640, 627, 615, 602, 579, 570, 558, 548, 531, 521, 516, 507, 491, 483, 475, 469, 457, 450, 441, 435, 420, 415, 406, 399, 384, 378, 371, 362, 349, 341, 334, 326, 314, 308, 302, 294, 286, 281, 275, 270, 257, 253, 245, 241, 232, 227, 222, 215, 209, 205, 202, 200, 194, 191, 188, 185, 179, 177, 174, 170, 166, 164, 162, 160, 155, 153, 150, 150, 145, 142, 140, 138, 135, 133, 133, 132, 131, 129, 129, 129, 128, 127, 127, 125, 124, 124, 122, 120, 119, 119, 119, 119, 116, 115, 115, 115, 111, 110, 109, 109, 106, 106, 105, 105, 102, 101, 101, 98, 94, 92, 92, 90, 88, 88, 86, 85, 85, 84, 83, 83, 82, 82, 82, 82, 81, 81, 81, 80, 80, 80, 80]"
Cond,DecisionB,Stage,accuracy,avg_rt,count_decision_sequence,count_loop1,count_trial_sequence,font_size,height,init_time,payoff,response,rt,subject_nr,synth_backend,tTrajectory,time_experiment,width,xTrajectory,yTrajectory
"Trust","Teilnehmer A hat Ihnen 2 Punkte übermittelt.","Payback","1","undefined","0","0","0","60","1080","281","5","1","2014","0","legacy","[11, 21, 31, 41, 51, 61, 71, 81, 91, 101, 111, 121, 131, 141, 151, 161, 171, 181, 191, 201, 211, 221, 231, 241, 251, 261, 271, 281, 291, 301, 311, 321, 331, 341, 351, 361, 371, 381, 391, 401, 411, 421, 431, 441, 451, 461, 471, 481, 491, 501, 511, 521, 531, 541, 551, 561, 571, 581, 591, 601, 611, 621, 631, 641, 651, 661, 671, 681, 691, 701, 711, 721, 731, 741, 751, 761, 771, 781, 791, 801, 811, 821, 831, 841, 851, 861, 871, 881, 891, 901, 911, 921, 931, 941, 951, 961, 971, 981, 991, 1001, 1011, 1021, 1031, 1041, 1051, 1061, 1071, 1081, 1091, 1101, 1111, 1121, 1131, 1141, 1151, 1161, 1171, 1181, 1191, 1201, 1211, 1221, 1231, 1241, 1251, 1261, 1271, 1281, 1291, 1301, 1311, 1321, 1331, 1341, 1351, 1361, 1371, 1381, 1391, 1401, 1411, 1421, 1431, 1441, 1451, 1461, 1471, 1481, 1491, 1501, 1511, 1521, 1531, 1541, 1551, 1561, 1571, 1581, 1591, 1601, 1611, 1621, 1631, 1641, 1651, 1661, 1671, 1681, 1691, 1701, 1711, 1721, 1731, 1741, 1751, 1761, 1771, 1781, 1791, 1801, 1811, 1821, 1831, 1841, 1851, 1861, 1871, 1881, 1891, 1901, 1911, 1921, 1931, 1941, 1951, 1961, 1971, 1981, 1991, 2001, 2011]","1179","1920","[960, 960, 960, 960, 960, 960, 960, 960, 960, 960, 960, 960, 960, 960, 960, 960, 960, 960, 960, 960, 960, 960, 960, 958, 957, 955, 951, 947, 943, 940, 928, 923, 916, 910, 900, 896, 890, 886, 879, 874, 869, 864, 856, 852, 846, 842, 833, 829, 825, 821, 812, 807, 803, 798, 787, 782, 778, 771, 760, 756, 751, 746, 739, 734, 729, 723, 714, 710, 705, 700, 692, 689, 684, 679, 669, 664, 660, 656, 646, 641, 637, 632, 620, 617, 614, 610, 601, 597, 595, 591, 581, 577, 571, 567, 555, 549, 544, 539, 530, 524, 523, 517, 507, 502, 497, 493, 484, 481, 478, 474, 468, 464, 460, 458, 450, 448, 445, 442, 437, 435, 430, 428, 422, 420, 416, 414, 407, 405, 404, 401, 396, 394, 392, 390, 387, 383, 381, 378, 372, 368, 365, 363, 359, 357, 354, 354, 350, 349, 346, 345, 342, 342, 341, 340, 338, 336, 336, 334, 332, 331, 329, 328, 326, 325, 323, 321, 318, 314, 312, 310, 306, 304, 301, 299, 294, 291, 290, 287, 282, 281, 278, 274, 269, 269, 267, 265, 262, 261, 259, 259, 257, 256, 255, 255, 254, 253, 252, 252, 252, 252, 252]","[1010, 1010, 1010, 1010, 1010, 1010, 1010, 1010, 1010, 1010, 1010, 1010, 1010, 1010, 1010, 1010, 1010, 1010, 1005, 1002, 998, 994, 981, 974, 968, 959, 942, 933, 924, 916, 897, 888, 878, 869, 854, 847, 839, 832, 818, 811, 803, 797, 783, 776, 770, 763, 749, 745, 737, 731, 720, 713, 708, 700, 685, 679, 674, 666, 657, 652, 647, 641, 634, 629, 624, 618, 607, 603, 597, 592, 582, 577, 571, 565, 555, 550, 545, 541, 529, 524, 519, 514, 503, 500, 495, 491, 481, 476, 474, 468, 457, 450, 444, 439, 427, 420, 414, 409, 398, 391, 388, 381, 369, 363, 358, 354, 344, 342, 339, 334, 326, 322, 318, 315, 306, 305, 302, 299, 294, 292, 289, 286, 281, 280, 277, 275, 269, 267, 266, 264, 261, 259, 257, 255, 253, 251, 249, 247, 242, 240, 238, 237, 233, 232, 230, 229, 227, 225, 223, 221, 219, 218, 217, 216, 214, 212, 211, 210, 206, 205, 204, 203, 200, 198, 197, 194, 190, 185, 183, 181, 176, 173, 170, 168, 162, 159, 157, 155, 149, 147, 145, 142, 138, 138, 136, 134, 131, 130, 127, 127, 126, 124, 124, 122, 121, 121, 120, 120, 120, 120, 120]"
"Trust","Teilnehmer A hat Ihnen 2 Punkte übermittelt.","Payback","1","undefined","1","0","0","60","1080","281","5","1","1718","0","legacy","[11, 21, 31, 41, 51, 61, 71, 81, 91, 101, 111, 121, 131, 141, 151, 161, 171, 181, 191, 201, 211, 221, 231, 241, 251, 261, 271, 281, 291, 301, 311, 321, 331, 341, 351, 361, 371, 381, 391, 401, 411, 421, 431, 441, 451, 461, 471, 481, 491, 501, 511, 521, 531, 541, 551, 561, 571, 581, 591, 601, 611, 621, 631, 641, 651, 661, 671, 681, 691, 701, 711, 721, 731, 741, 751, 761, 771, 781, 791, 801, 811, 821, 831, 841, 851, 861, 871, 881, 891, 901, 911, 921, 931, 941, 951, 961, 971, 981, 991, 1001, 1011, 1021, 1031, 1041, 1051, 1061, 1071, 1081, 1091, 1101, 1111, 1121, 1131, 1141, 1151, 1161, 1171, 1181, 1191, 1201, 1211, 1221, 1231, 1241, 1251, 1261, 1271, 1281, 1291, 1301, 1311, 1321, 1331, 1341, 1351, 1361, 1371, 1381, 1391, 1401, 1411, 1421, 1431, 1441, 1451, 1461, 1471, 1481, 1491, 1501, 1511, 1521, 1531, 1541, 1551, 1561, 1571, 1581, 1591, 1601, 1611, 1621, 1631, 1641, 1651, 1661, 1671, 1681, 1691, 1701, 1711]","1179","1920","[960, 960, 960, 960, 960, 960, 960, 960, 960, 960, 960, 960, 960, 960, 960, 960, 960, 960, 959, 957, 957, 956, 953, 951, 948, 945, 936, 929, 923, 917, 902, 897, 892, 887, 880, 878, 876, 874, 869, 866, 862, 859, 852, 846, 842, 837, 827, 820, 815, 809, 799, 794, 787, 782, 770, 765, 759, 755, 746, 742, 738, 737, 733, 731, 728, 725, 718, 713, 709, 705, 694, 691, 686, 682, 672, 667, 664, 659, 652, 646, 642, 638, 631, 627, 624, 618, 609, 604, 597, 591, 581, 577, 570, 565, 555, 550, 546, 540, 530, 526, 521, 518, 508, 500, 497, 493, 485, 483, 480, 477, 468, 465, 460, 455, 445, 440, 434, 431, 420, 415, 411, 405, 398, 395, 394, 392, 388, 386, 383, 379, 373, 369, 368, 364, 358, 353, 348, 343, 336, 332, 330, 326, 322, 319, 317, 316, 310, 307, 304, 300, 296, 294, 292, 287, 280, 278, 274, 270, 263, 262, 261, 260, 259, 259, 259, 259, 259, 259, 259, 258, 258]","[1010, 1010, 1010, 1010, 1010, 1010, 1010, 1010, 1010, 1010, 1010, 1010, 1010, 1010, 1010, 1010, 1010, 1010, 1008, 1003, 1000, 996, 986, 980, 973, 964, 945, 934, 923, 912, 893, 886, 878, 872, 862, 859, 856, 853, 842, 838, 831, 827, 813, 806, 800, 791, 773, 766, 757, 747, 729, 719, 710, 703, 685, 678, 669, 661, 648, 642, 637, 634, 627, 623, 618, 614, 603, 596, 592, 585, 570, 568, 561, 555, 540, 534, 529, 524, 513, 506, 501, 495, 484, 479, 475, 469, 456, 450, 442, 436, 426, 420, 414, 407, 395, 390, 384, 377, 366, 360, 353, 349, 337, 328, 325, 321, 315, 311, 308, 304, 295, 293, 290, 286, 279, 276, 271, 268, 261, 257, 254, 250, 244, 243, 241, 239, 234, 232, 229, 224, 218, 216, 214, 210, 200, 195, 189, 185, 180, 177, 175, 172, 167, 166, 163, 162, 158, 155, 154, 153, 150, 147, 146, 143, 139, 137, 135, 133, 129, 129, 127, 127, 127, 127, 127, 127, 127, 127, 127, 126, 126]"
"NoTrust","Teilnehmer A hat Ihnen keine 2 Punkte übermittelt.","Payback","1","undefined","2","0","0","60","1080","281","0","1","1718","0","legacy","[11, 21, 31, 41, 51, 61, 71, 81, 91, 101, 111, 121, 131, 141, 151, 161, 171, 181, 191, 201, 211, 221, 231, 241, 251, 261, 271, 281, 291, 301, 311, 321, 331, 341, 351, 361, 371, 381, 391, 401, 411, 421, 431, 441, 451, 461, 471, 481, 491, 501, 511, 521, 531, 541, 551, 561, 571, 581, 591, 601, 611, 621, 631, 641, 651, 661, 671, 681, 691, 701, 711, 721, 731, 741, 751, 761, 771, 781, 791, 801, 811, 821, 831, 841, 851, 861, 871, 881, 891, 901, 911, 921, 931, 941, 951, 961, 971, 981, 991, 1001, 1011, 1021, 1031, 1041, 1051, 1061, 1071, 1081, 1091, 1101, 1111, 1121, 1131, 1141, 1151, 1161, 1171, 1181, 1191, 1201, 1211, 1221, 1231, 1241, 1251, 1261, 1271, 1281, 1291, 1301, 1311, 1321, 1331, 1341, 1351, 1361, 1371, 1381, 1391, 1401, 1411, 1421, 1431, 1441, 1451, 1461, 1471, 1481, 1491, 1501, 1511, 1521, 1531, 1541, 1551, 1561, 1571, 1581, 1591, 1601, 1611, 1621, 1631, 1641, 1651, 1661, 1671, 1681, 1691, 1701, 1711]","1179","1920","[960, 960, 960, 960, 960, 960, 960, 960, 960, 960, 960, 960, 960, 960, 960, 960, 960, 960, 959, 957, 957, 956, 953, 951, 948, 945, 936, 929, 923, 917, 902, 897, 892, 887, 880, 878, 876, 874, 869, 866, 862, 859, 852, 846, 842, 837, 827, 820, 815, 809, 799, 794, 787, 782, 770, 765, 759, 755, 746, 742, 738, 737, 733, 731, 728, 725, 718, 713, 709, 705, 694, 691, 686, 682, 672, 667, 664, 659, 652, 646, 642, 638, 631, 627, 624, 618, 609, 604, 597, 591, 581, 577, 570, 565, 555, 550, 546, 540, 530, 526, 521, 518, 508, 500, 497, 493, 485, 483, 480, 477, 468, 465, 460, 455, 445, 440, 434, 431, 420, 415, 411, 405, 398, 395, 394, 392, 388, 386, 383, 379, 373, 369, 368, 364, 358, 353, 348, 343, 336, 332, 330, 326, 322, 319, 317, 316, 310, 307, 304, 300, 296, 294, 292, 287, 280, 278, 274, 270, 263, 262, 261, 260, 259, 259, 259, 259, 259, 259, 259, 258, 258]","[1010, 1010, 1010, 1010, 1010, 1010, 1010, 1010, 1010, 1010, 1010, 1010, 1010, 1010, 1010, 1010, 1010, 1010, 1008, 1003, 1000, 996, 986, 980, 973, 964, 945, 934, 923, 912, 893, 886, 878, 872, 862, 859, 856, 853, 842, 838, 831, 827, 813, 806, 800, 791, 773, 766, 757, 747, 729, 719, 710, 703, 685, 678, 669, 661, 648, 642, 637, 634, 627, 623, 618, 614, 603, 596, 592, 585, 570, 568, 561, 555, 540, 534, 529, 524, 513, 506, 501, 495, 484, 479, 475, 469, 456, 450, 442, 436, 426, 420, 414, 407, 395, 390, 384, 377, 366, 360, 353, 349, 337, 328, 325, 321, 315, 311, 308, 304, 295, 293, 290, 286, 279, 276, 271, 268, 261, 257, 254, 250, 244, 243, 241, 239, 234, 232, 229, 224, 218, 216, 214, 210, 200, 195, 189, 185, 180, 177, 175, 172, 167, 166, 163, 162, 158, 155, 154, 153, 150, 147, 146, 143, 139, 137, 135, 133, 129, 129, 127, 127, 127, 127, 127, 127, 127, 127, 127, 126, 126]"
"Promise","Wie oft werden Sie die Hälfte zurückgeben?","Promise","1","undefined","2","0","1","60","1080","221","0","1","1128","0","legacy","[11, 21, 31, 41, 51, 61, 71, 81, 91, 101, 111, 121, 131, 141, 151, 161, 171, 181, 191, 201, 211, 221, 231, 241, 251, 261, 271, 281, 291, 301, 311, 321, 331, 341, 351, 361, 371, 381, 391, 401, 411, 421, 431, 441, 451, 461, 471, 481, 491, 501, 511, 521, 531, 541, 551, 561, 571, 581, 591, 601, 611, 621, 631, 641, 651, 661, 671, 681, 691, 701, 711, 721, 731, 741, 751, 761, 771, 781, 791, 801, 811, 821, 831, 841, 851, 861, 871, 881, 891, 901, 911, 921, 931, 941, 951, 961, 971, 981, 991, 1001, 1011, 1021, 1031, 1041, 1051, 1061, 1071, 1081, 1091, 1101, 1111, 1121]","1179","1920","[960, 960, 960, 960, 960, 960, 960, 960, 960, 960, 960, 958, 956, 952, 948, 932, 919, 908, 896, 872, 863, 856, 845, 827, 820, 810, 802, 784, 777, 770, 762, 750, 744, 740, 731, 712, 702, 693, 685, 669, 662, 655, 646, 628, 615, 607, 595, 575, 565, 556, 546, 531, 526, 519, 513, 501, 495, 487, 480, 470, 465, 461, 455, 447, 441, 438, 434, 430, 428, 426, 425, 419, 416, 411, 408, 400, 397, 393, 389, 383, 377, 374, 371, 363, 358, 354, 348, 336, 329, 322, 311, 294, 284, 277, 271, 258, 253, 247, 243, 234, 231, 228, 225, 217, 211, 207, 200, 193, 192, 192, 192, 192]","[1010, 1010, 1010, 1010, 1010, 1010, 1010, 1010, 1010, 1010, 1010, 1009, 1006, 1001, 998, 987, 982, 973, 967, 950, 943, 936, 925, 904, 894, 882, 872, 845, 832, 819, 808, 786, 771, 760, 745, 712, 698, 684, 671, 643, 630, 617, 603, 579, 566, 555, 543, 524, 510, 498, 486, 464, 454, 443, 433, 411, 401, 391, 382, 367, 359, 353, 346, 335, 328, 325, 318, 313, 309, 307, 305, 298, 294, 288, 283, 273, 268, 263, 259, 251, 245, 240, 237, 227, 223, 219, 214, 203, 198, 192, 185, 173, 167, 162, 158, 150, 147, 144, 140, 134, 132, 129, 127, 123, 120, 117, 113, 109, 108, 108, 108, 108]"
"Trust","Teilnehmer A hat Ihnen 2 Punkte übermittelt.","Payback","1","undefined","3","0","1","60","1080","311","5","1","1565","0","legacy","[11, 21, 31, 41, 51, 61, 71, 81, 91, 101, 111, 121, 131, 141, 151, 161, 171, 181, 191, 201, 211, 221, 231, 241, 251, 261, 271, 281, 291, 301, 311, 321, 331, 341, 351, 361, 371, 381, 391, 401, 411, 421, 431, 441, 451, 461, 471, 481, 491, 501, 511, 521, 531, 541, 551, 561, 571, 581, 591, 601, 611, 621, 631, 641, 651, 661, 671, 681, 691, 701, 711, 721, 731, 741, 751, 761, 771, 781, 791, 801, 811, 821, 831, 841, 851, 861, 871, 881, 891, 901, 911, 921, 931, 941, 951, 961, 971, 981, 991, 1001, 1011, 1021, 1031, 1041, 1051, 1061, 1071, 1081, 1091, 1101, 1111, 1121, 1131, 1141, 1151, 1161, 1171, 1181, 1191, 1201, 1211, 1221, 1231, 1241, 1251, 1261, 1271, 1281, 1291, 1301, 1311, 1321, 1331, 1341, 1351, 1361, 1371, 1381, 1391, 1401, 1411, 1421, 1431, 1441, 1451, 1461, 1471, 1481, 1491, 1501, 1511, 1521, 1531, 1541, 1551, 1561]","1179","1920","[960, 960, 960, 960, 960, 959, 959, 959, 959, 959, 959, 959, 959, 959, 957, 956, 955, 955, 955, 953, 953, 952, 950, 949, 948, 945, 943, 939, 935, 932, 921, 913, 907, 902, 890, 887, 883, 877, 868, 865, 860, 856, 850, 848, 845, 843, 838, 833, 830, 828, 822, 818, 814, 810, 802, 798, 791, 786, 774, 767, 763, 756, 743, 736, 730, 720, 705, 700, 690, 681, 668, 660, 652, 644, 629, 622, 615, 610, 596, 591, 585, 578, 564, 557, 551, 544, 533, 527, 521, 511, 489, 478, 468, 459, 444, 438, 429, 423, 410, 403, 396, 393, 382, 376, 371, 366, 357, 351, 345, 341, 331, 325, 318, 314, 301, 296, 290, 284, 276, 274, 272, 267, 263, 260, 259, 254, 249, 247, 246, 245, 242, 242, 242, 240, 239, 239, 239, 237, 235, 235, 234, 233, 233, 233, 232, 232, 232, 232, 232, 232, 230, 230, 230, 230, 230, 230]","[1010, 1010, 1010, 1010, 1010, 1011, 1011, 1011, 1011, 1011, 1011, 1011, 1011, 1011, 1011, 1011, 1011, 1011, 1007, 1005, 1005, 1002, 998, 996, 993, 987, 980, 973, 964, 957, 938, 926, 916, 906, 885, 876, 865, 853, 833, 824, 814, 802, 784, 775, 768, 760, 744, 736, 729, 723, 709, 701, 694, 686, 673, 664, 654, 648, 631, 621, 615, 605, 588, 579, 571, 560, 545, 536, 527, 517, 499, 490, 482, 471, 453, 445, 438, 430, 415, 408, 401, 392, 378, 370, 364, 358, 345, 339, 333, 323, 308, 300, 293, 288, 276, 272, 267, 262, 255, 251, 247, 245, 237, 234, 230, 226, 220, 217, 215, 211, 207, 203, 198, 197, 188, 185, 182, 179, 173, 171, 169, 167, 163, 161, 159, 156, 152, 150, 148, 148, 145, 144, 143, 141, 139, 139, 137, 135, 133, 133, 130, 130, 128, 127, 127, 126, 124, 124, 123, 123, 122, 122, 122, 122, 122, 122]"
"Trust","Teilnehmer A hat Ihnen 2 Punkte übermittelt.","Payback","1","undefined","4","0","1","60","1080","271","5","1","1700","0","legacy","[11, 21, 31, 41, 51, 61, 71, 81, 91, 101, 111, 121, 131, 141, 151, 161, 171, 181, 191, 201, 211, 221, 231, 241, 251, 261, 271, 281, 291, 301, 311, 321, 331, 341, 351, 361, 371, 381, 391, 401, 411, 421, 431, 441, 451, 461, 471, 481, 491, 501, 511, 521, 531, 541, 551, 561, 571, 581, 591, 601, 611, 621, 631, 641, 651, 661, 671, 681, 691, 701, 711, 721, 731, 741, 751, 761, 771, 781, 791, 801, 811, 821, 831, 841, 851, 861, 871, 881, 891, 901, 911, 921, 931, 941, 951, 961, 971, 981, 991, 1001, 1011, 1021, 1031, 1041, 1051, 1061, 1071, 1081, 1091, 1101, 1111, 1121, 1131, 1141, 1151, 1161, 1171, 1181, 1191, 1201, 1211, 1221, 1231, 1241, 1251, 1261, 1271, 1281, 1291, 1301, 1311, 1321, 1331, 1341, 1351, 1361, 1371, 1381, 1391, 1401, 1411, 1421, 1431, 1441, 1451, 1461, 1471, 1481, 1491, 1501, 1511, 1521, 1531, 1541, 1551, 1561, 1571, 1581, 1591, 1601, 1611, 1621, 1631, 1641, 1651, 1661, 1671, 1681, 1691]","1179","1920","[960, 960, 960, 960, 960, 960, 960, 960, 959, 958, 958, 958, 958, 958, 958, 958, 958, 957, 955, 953, 950, 938, 933, 926, 919, 901, 891, 883, 874, 856, 845, 837, 830, 819, 813, 808, 804, 791, 786, 776, 771, 757, 747, 739, 729, 713, 705, 697, 689, 675, 663, 657, 647, 627, 621, 611, 603, 586, 576, 568, 560, 547, 538, 532, 526, 513, 507, 502, 497, 488, 483, 478, 470, 459, 451, 445, 439, 427, 423, 418, 413, 402, 396, 391, 386, 371, 365, 357, 350, 337, 331, 326, 321, 312, 307, 304, 300, 296, 294, 292, 290, 283, 282, 277, 276, 273, 272, 271, 271, 267, 264, 264, 261, 260, 258, 257, 257, 255, 254, 252, 251, 248, 246, 244, 244, 243, 243, 242, 242, 241, 240, 240, 240, 239, 239, 239, 239, 239, 239, 239, 239, 239, 239, 239, 239, 239, 239, 239, 239, 239, 239, 239, 239, 239, 239, 239, 239, 239, 239, 239, 239, 239, 239, 239, 239, 239, 239, 239, 239]","[1010, 1010, 1010, 1010, 1010, 1010, 1010, 1010, 1010, 1010, 1010, 1010, 1010, 1010, 1010, 1010, 1010, 1010, 1010, 1010, 1006, 992, 985, 976, 966, 945, 931, 921, 908, 881, 866, 856, 846, 824, 816, 808, 800, 780, 770, 758, 748, 724, 711, 700, 686, 666, 656, 644, 633, 611, 595, 585, 571, 547, 536, 524, 514, 493, 481, 471, 461, 442, 431, 421, 414, 398, 393, 387, 381, 368, 363, 358, 353, 344, 338, 333, 328, 320, 317, 313, 309, 300, 296, 292, 288, 278, 273, 268, 264, 254, 248, 243, 240, 231, 226, 222, 218, 213, 211, 208, 206, 200, 198, 196, 193, 191, 189, 189, 187, 183, 179, 178, 175, 172, 170, 168, 166, 161, 157, 154, 152, 144, 139, 138, 136, 133, 132, 131, 130, 129, 128, 128, 127, 125, 125, 125, 125, 125, 125, 125, 125, 125, 125, 125, 125, 125, 125, 125, 125, 125, 125, 125, 125, 125, 125, 125, 125, 125, 125, 125, 125, 125, 125, 125, 125, 125, 125, 125, 125]"
"Trust","Teilnehmer A hat Ihnen 2 Punkte übermittelt.","Payback","1","undefined","5","0","1","60","1080","261","5","1","1301","0","legacy","[11, 21, 31, 41, 51, 61, 71, 81, 91, 101, 111, 121, 131, 141, 151, 161, 171, 181, 191, 201, 211, 221, 231, 241, 251, 261, 271, 281, 291, 301, 311, 321, 331, 341, 351, 361, 371, 381, 391, 401, 411, 421, 431, 441, 451, 461, 471, 481, 491, 501, 511, 521, 531, 541, 551, 561, 571, 581, 591, 601, 611, 621, 631, 641, 651, 661, 671, 681, 691, 701, 711, 721, 731, 741, 751, 761, 771, 781, 791, 801, 811, 821, 831, 841, 851, 861, 871, 881, 891, 901, 911, 921, 931, 941, 951, 961, 971, 981, 991, 1001, 1011, 1021, 1031, 1041, 1051, 1061, 1071, 1081, 1091, 1101, 1111, 1121, 1131, 1141, 1151, 1161, 1171, 1181, 1191, 1201, 1211, 1221, 1231, 1241, 1251, 1261, 1271, 1281, 1291, 1301]","1179","1920","[960, 960, 960, 960, 960, 960, 959, 958, 958, 958, 958, 958, 958, 958, 955, 953, 950, 948, 941, 939, 936, 933, 928, 926, 923, 919, 906, 896, 883, 877, 861, 855, 847, 839, 827, 821, 813, 804, 787, 778, 769, 758, 741, 732, 724, 718, 707, 701, 692, 683, 663, 653, 642, 633, 614, 606, 598, 591, 573, 565, 556, 549, 533, 524, 513, 502, 480, 466, 457, 448, 435, 429, 425, 421, 413, 408, 402, 397, 387, 381, 378, 375, 370, 367, 365, 362, 355, 350, 346, 344, 337, 333, 330, 328, 321, 318, 315, 311, 301, 294, 290, 284, 275, 269, 265, 260, 252, 250, 246, 244, 237, 235, 234, 231, 226, 224, 222, 220, 218, 218, 216, 216, 215, 214, 214, 214, 214, 214, 214, 214]","[1010, 1010, 1010, 1010, 1010, 1010, 1010, 1011, 1011, 1011, 1011, 1011, 1011, 1011, 1009, 1007, 1003, 998, 987, 984, 978, 974, 962, 956, 947, 938, 914, 898, 883, 873, 855, 848, 839, 831, 816, 808, 799, 790, 773, 764, 755, 745, 729, 722, 716, 711, 697, 690, 681, 673, 656, 649, 641, 634, 618, 612, 604, 598, 583, 577, 569, 562, 544, 535, 523, 511, 489, 478, 470, 462, 450, 445, 439, 434, 423, 414, 407, 399, 388, 382, 378, 374, 365, 359, 350, 344, 328, 320, 311, 306, 292, 285, 281, 277, 265, 260, 253, 244, 228, 218, 209, 202, 187, 178, 170, 164, 151, 146, 141, 136, 125, 122, 120, 117, 109, 106, 103, 99, 96, 95, 93, 92, 91, 89, 89, 89, 89, 89, 89, 89]"
"Promise","Wie oft werden Sie die Hälfte zurückgeben?","Promise","1","undefined","5","0","2","60","1080","221","5","1","880","0","legacy","[11, 21, 31, 41, 51, 61, 71, 81, 91, 101, 111, 121, 131, 141, 151, 161, 171, 181, 191, 201, 211, 221, 231, 241, 251, 261, 271, 281, 291, 301, 311, 321, 331, 341, 351, 361, 371, 381, 391, 401, 411, 421, 431, 441, 451, 461, 471, 481, 491, 501, 511, 521, 531, 541, 551, 561, 571, 581, 591, 601, 611, 621, 631, 641, 651, 661, 671, 681, 691, 701, 711, 721, 731, 741, 751, 761, 771, 781, 791, 801, 811, 821, 831, 841, 851, 861, 871]","1179","1920","[960, 960, 960, 960, 960, 960, 960, 960, 960, 960, 960, 958, 954, 950, 943, 928, 922, 915, 908, 897, 889, 880, 868, 828, 807, 775, 743, 667, 636, 607, 575, 515, 491, 468, 450, 422, 406, 390, 374, 344, 324, 312, 302, 285, 281, 275, 273, 268, 267, 263, 260, 254, 249, 246, 242, 236, 232, 230, 228, 225, 223, 221, 219, 215, 211, 209, 207, 202, 198, 197, 193, 188, 184, 182, 178, 173, 170, 168, 166, 162, 161, 160, 160, 159, 159, 159, 159]","[1010, 1010, 1010, 1010, 1010, 1010, 1010, 1010, 1010, 1010, 1010, 1010, 1009, 1006, 1001, 989, 984, 977, 970, 953, 942, 932, 918, 875, 852, 820, 787, 716, 688, 662, 636, 585, 565, 545, 530, 503, 487, 472, 456, 422, 401, 386, 374, 349, 341, 331, 325, 313, 308, 301, 294, 278, 269, 262, 254, 243, 239, 234, 231, 224, 219, 216, 213, 206, 201, 197, 195, 188, 182, 179, 176, 170, 167, 163, 158, 151, 149, 145, 143, 137, 136, 134, 133, 132, 132, 131, 131]"
"Trust","Teilnehmer A hat Ihnen 2 Punkte übermittelt.","Payback","1","undefined","6","0","2","60","1080","1251","5","1","2050","0","legacy","[11, 21, 31, 41, 51, 61, 71, 81, 91, 101, 111, 121, 131, 141, 151, 161, 171, 181, 191, 201, 211, 221, 231, 241, 251, 261, 271, 281, 291, 301, 311, 321, 331, 341, 351, 361, 371, 381, 391, 401, 411, 421, 431, 441, 451, 461, 471, 481, 491, 501, 511, 521, 531, 541, 551, 561, 571, 581, 591, 601, 611, 621, 631, 641, 651, 661, 671, 681, 691, 701, 711, 721, 731, 741, 751, 761, 771, 781, 791, 801, 811, 821, 831, 841, 851, 861, 871, 881, 891, 901, 911, 921, 931, 941, 951, 961, 971, 981, 991, 1001, 1011, 1021, 1031, 1041, 1051, 1061, 1071, 1081, 1091, 1101, 1111, 1121, 1131, 1141, 1151, 1161, 1171, 1181, 1191, 1201, 1211, 1221, 1231, 1241, 1251, 1261, 1271, 1281, 1291, 1301, 1311, 1321, 1331, 1341, 1351, 1361, 1371, 1381, 1391, 1401, 1411, 1421, 1431, 1441, 1451, 1461, 1471, 1481, 1491, 1501, 1511, 1521, 1531, 1541, 1551, 1561, 1571, 1581, 1591, 1601, 1611, 1621, 1631, 1641, 1651, 1661, 1671, 1681, 1691, 1701, 1711, 1721, 1731, 1741, 1751, 1761, 1771, 1781, 1791, 1801, 1811, 1821, 1831, 1841, 1851, 1861, 1871, 1881, 1891, 1901, 1911, 1921, 1931, 1941, 1951, 1961, 1971, 1981, 1991, 2001, 2011, 2021, 2031, 2041]","1179","1920","[960, 960, 960, 960, 960, 960, 960, 960, 960, 960, 960, 960, 960, 959, 959, 959, 959, 959, 959, 959, 959, 959, 959, 959, 959, 959, 959, 959, 959, 959, 959, 959, 959, 959, 959, 959, 959, 959, 959, 959, 959, 959, 959, 959, 959, 959, 959, 959, 959, 959, 959, 959, 959, 959, 959, 959, 959, 959, 959, 959, 959, 959, 959, 959, 959, 959, 959, 959, 959, 959, 959, 959, 959, 959, 959, 959, 959, 959, 959, 959, 959, 959, 959, 959, 959, 959, 959, 959, 959, 959, 959, 959, 959, 959, 959, 959, 959, 959, 959, 959, 959, 959, 959, 959, 959, 959, 959, 959, 959, 959, 959, 959, 959, 959, 959, 958, 955, 955, 953, 950, 943, 935, 928, 917, 889, 876, 859, 846, 830, 823, 815, 805, 786, 775, 768, 756, 736, 720, 700, 680, 652, 645, 637, 628, 611, 600, 584, 565, 517, 490, 466, 442, 412, 404, 399, 393, 384, 377, 369, 361, 348, 341, 339, 336, 334, 332, 331, 329, 325, 323, 322, 321, 321, 318, 318, 316, 310, 309, 305, 302, 295, 293, 290, 289, 287, 285, 283, 281, 277, 276, 272, 270, 267, 267, 265, 265, 265, 265, 265, 265, 265, 265, 265, 265]","[1010, 1010, 1010, 1010, 1010, 1010, 1010, 1010, 1010, 1010, 1010, 1010, 1010, 1010, 1010, 1010, 1010, 1010, 1010, 1010, 1010, 1010, 1010, 1010, 1010, 1010, 1010, 1010, 1010, 1010, 1010, 1010, 1010, 1010, 1010, 1010, 1010, 1010, 1010, 1010, 1010, 1010, 1010, 1010, 1010, 1010, 1010, 1010, 1010, 1010, 1010, 1010, 1010, 1010, 1010, 1010, 1010, 1010, 1010, 1010, 1010, 1010, 1010, 1010, 1010, 1010, 1010, 1010, 1010, 1010, 1010, 1010, 1010, 1010, 1010, 1010, 1010, 1010, 1010, 1010, 1010, 1010, 1010, 1010, 1010, 1010, 1010, 1010, 1010, 1010, 1010, 1010, 1010, 1010, 1010, 1010, 1010, 1010, 1010, 1010, 1010, 1010, 1010, 1010, 1010, 1010, 1010, 1010, 1011, 1011, 1011, 1011, 1011, 1011, 1011, 1011, 1011, 1011, 1009, 1007, 1001, 994, 984, 970, 928, 911, 886, 866, 844, 836, 825, 812, 788, 773, 763, 745, 696, 666, 618, 572, 528, 517, 505, 492, 465, 448, 426, 400, 345, 316, 292, 270, 243, 236, 231, 222, 208, 198, 187, 176, 156, 148, 146, 143, 140, 137, 135, 133, 130, 129, 129, 128, 128, 128, 128, 127, 127, 126, 126, 125, 123, 123, 122, 122, 122, 122, 121, 121, 121, 120, 120, 120, 119, 119, 119, 119, 119, 119, 119, 119, 119, 119, 119, 119]"
"NoTrust","Teilnehmer A hat Ihnen keine 2 Punkte übermittelt.","Payback","1","undefined","7","0","2","60","1080","1251","0","1","2050","0","legacy","[11, 21, 31, 41, 51, 61, 71, 81, 91, 101, 111, 121, 131, 141, 151, 161, 171, 181, 191, 201, 211, 221, 231, 241, 251, 261, 271, 281, 291, 301, 311, 321, 331, 341, 351, 361, 371, 381, 391, 401, 411, 421, 431, 441, 451, 461, 471, 481, 491, 501, 511, 521, 531, 541, 551, 561, 571, 581, 591, 601, 611, 621, 631, 641, 651, 661, 671, 681, 691, 701, 711, 721, 731, 741, 751, 761, 771, 781, 791, 801, 811, 821, 831, 841, 851, 861, 871, 881, 891, 901, 911, 921, 931, 941, 951, 961, 971, 981, 991, 1001, 1011, 1021, 1031, 1041, 1051, 1061, 1071, 1081, 1091, 1101, 1111, 1121, 1131, 1141, 1151, 1161, 1171, 1181, 1191, 1201, 1211, 1221, 1231, 1241, 1251, 1261, 1271, 1281, 1291, 1301, 1311, 1321, 1331, 1341, 1351, 1361, 1371, 1381, 1391, 1401, 1411, 1421, 1431, 1441, 1451, 1461, 1471, 1481, 1491, 1501, 1511, 1521, 1531, 1541, 1551, 1561, 1571, 1581, 1591, 1601, 1611, 1621, 1631, 1641, 1651, 1661, 1671, 1681, 1691, 1701, 1711, 1721, 1731, 1741, 1751, 1761, 1771, 1781, 1791, 1801, 1811, 1821, 1831, 1841, 1851, 1861, 1871, 1881, 1891, 1901, 1911, 1921, 1931, 1941, 1951, 1961, 1971, 1981, 1991, 2001, 2011, 2021, 2031, 2041]","1179","1920","[960, 960, 960, 960, 960, 960, 960, 960, 960, 960, 960, 960, 960, 959, 959, 959, 959, 959, 959, 959, 959, 959, 959, 959, 959, 959, 959, 959, 959, 959, 959, 959, 959, 959, 959, 959, 959, 959, 959, 959, 959, 959, 959, 959, 959, 959, 959, 959, 959, 959, 959, 959, 959, 959, 959, 959, 959, 959, 959, 959, 959, 959, 959, 959, 959, 959, 959, 959, 959, 959, 959, 959, 959, 959, 959, 959, 959, 959, 959, 959, 959, 959, 959, 959, 959, 959, 959, 959, 959, 959, 959, 959, 959, 959, 959, 959, 959, 959, 959, 959, 959, 959, 959, 959, 959, 959, 959, 959, 959, 959, 959, 959, 959, 959, 959, 958, 955, 955, 953, 950, 943, 935, 928, 917, 889, 876, 859, 846, 830, 823, 815, 805, 786, 775, 768, 756, 736, 720, 700, 680, 652, 645, 637, 628, 611, 600, 584, 565, 517, 490, 466, 442, 412, 404, 399, 393, 384, 377, 369, 361, 348, 341, 339, 336, 334, 332, 331, 329, 325, 323, 322, 321, 321, 318, 318, 316, 310, 309, 305, 302, 295, 293, 290, 289, 287, 285, 283, 281, 277, 276, 272, 270, 267, 267, 265, 265, 265, 265, 265, 265, 265, 265, 265, 265]","[1010, 1010, 1010, 1010, 1010, 1010, 1010, 1010, 1010, 1010, 1010, 1010, 1010, 1010, 1010, 1010, 1010, 1010, 1010, 1010, 1010, 1010, 1010, 1010, 1010, 1010, 1010, 1010, 1010, 1010, 1010, 1010, 1010, 1010, 1010, 1010, 1010, 1010, 1010, 1010, 1010, 1010, 1010, 1010, 1010, 1010, 1010, 1010, 1010, 1010, 1010, 1010, 1010, 1010, 1010, 1010, 1010, 1010, 1010, 1010, 1010, 1010, 1010, 1010, 1010, 1010, 1010, 1010, 1010, 1010, 1010, 1010, 1010, 1010, 1010, 1010, 1010, 1010, 1010, 1010, 1010, 1010, 1010, 1010, 1010, 1010, 1010, 1010, 1010, 1010, 1010, 1010, 1010, 1010, 1010, 1010, 1010, 1010, 1010, 1010, 1010, 1010, 1010, 1010, 1010, 1010, 1010, 1010, 1011, 1011, 1011, 1011, 1011, 1011, 1011, 1011, 1011, 1011, 1009, 1007, 1001, 994, 984, 970, 928, 911, 886, 866, 844, 836, 825, 812, 788, 773, 763, 745, 696, 666, 618, 572, 528, 517, 505, 492, 465, 448, 426, 400, 345, 316, 292, 270, 243, 236, 231, 222, 208, 198, 187, 176, 156, 148, 146, 143, 140, 137, 135, 133, 130, 129, 129, 128, 128, 128, 128, 127, 127, 126, 126, 125, 123, 123, 122, 122, 122, 122, 121, 121, 121, 120, 120, 120, 119, 119, 119, 119, 119, 119, 119, 119, 119, 119, 119, 119]"
"Trust","Teilnehmer A hat Ihnen 2 Punkte übermittelt.","Payback","1","undefined","8","0","2","60","1080","311","5","1","1030","0","legacy","[11, 21, 31, 41, 51, 61, 71, 81, 91, 101, 111, 121, 131, 141, 151, 161, 171, 181, 191, 201, 211, 221, 231, 241, 251, 261, 271, 281, 291, 301, 311, 321, 331, 341, 351, 361, 371, 381, 391, 401, 411, 421, 431, 441, 451, 461, 471, 481, 491, 501, 511, 521, 531, 541, 551, 561, 571, 581, 591, 601, 611, 621, 631, 641, 651, 661, 671, 681, 691, 701, 711, 721, 731, 741, 751, 761, 771, 781, 791, 801, 811, 821, 831, 841, 851, 861, 871, 881, 891, 901, 911, 921, 931, 941, 951, 961, 971, 981, 991, 1001, 1011, 1021]","1179","1920","[960, 960, 960, 960, 960, 960, 960, 960, 960, 960, 960, 960, 960, 960, 960, 960, 960, 960, 960, 960, 960, 960, 960, 960, 960, 960, 955, 952, 947, 936, 912, 901, 884, 869, 840, 824, 804, 776, 726, 707, 682, 650, 608, 597, 586, 580, 559, 547, 537, 525, 505, 494, 483, 472, 454, 447, 438, 428, 411, 406, 402, 400, 399, 399, 399, 399, 397, 395, 392, 389, 379, 372, 363, 351, 329, 314, 299, 282, 257, 250, 240, 235, 228, 225, 223, 220, 214, 208, 207, 202, 198, 195, 194, 193, 191, 190, 190, 190, 188, 188, 188, 188]","[1010, 1010, 1010, 1010, 1010, 1010, 1010, 1010, 1010, 1010, 1010, 1010, 1010, 1010, 1010, 1010, 1010, 1010, 1010, 1010, 1010, 1010, 1010, 1009, 1007, 1006, 992, 986, 972, 948, 900, 883, 858, 840, 801, 778, 748, 713, 648, 623, 584, 544, 503, 494, 482, 476, 457, 446, 437, 428, 410, 400, 391, 382, 367, 361, 353, 346, 329, 324, 322, 319, 317, 316, 316, 314, 310, 308, 305, 301, 291, 284, 278, 268, 253, 242, 231, 220, 197, 190, 181, 174, 161, 155, 150, 143, 130, 121, 116, 110, 101, 97, 95, 92, 87, 85, 83, 80, 78, 77, 77, 77]"
"Promise","Wie oft werden Sie die Hälfte zurückgeben?","Promise","1","undefined","8","0","3","60","1080","211","5","1","981","0","legacy","[11, 21, 31, 41, 51, 61, 71, 81, 91, 101, 111, 121, 131, 141, 151, 161, 171, 181, 191, 201, 211, 221, 231, 241, 251, 261, 271, 281, 291, 301, 311, 321, 331, 341, 351, 361, 371, 381, 391, 401, 411, 421, 431, 441, 451, 461, 471, 481, 491, 501, 511, 521, 531, 541, 551, 561, 571, 581, 591, 601, 611, 621, 631, 641, 651, 661, 671, 681, 691, 701, 711, 721, 731, 741, 751, 761, 771, 781, 791, 801, 811, 821, 831, 841, 851, 861, 871, 881, 891, 901, 911, 921, 931, 941, 951, 961, 971, 981]","1179","1920","[960, 960, 960, 960, 960, 960, 960, 960, 960, 960, 960, 960, 960, 960, 958, 957, 956, 953, 942, 936, 927, 917, 899, 887, 877, 862, 842, 833, 824, 818, 807, 802, 796, 791, 780, 771, 764, 755, 743, 735, 731, 725, 713, 704, 696, 685, 664, 652, 637, 620, 585, 570, 553, 543, 524, 515, 507, 502, 492, 485, 481, 475, 465, 457, 451, 443, 428, 418, 410, 404, 390, 383, 375, 370, 356, 346, 340, 331, 320, 315, 310, 306, 302, 299, 297, 295, 287, 283, 281, 276, 270, 269, 268, 267, 266, 266, 266, 266]","[1010, 1010, 1010, 1010, 1010, 1010, 1010, 1010, 1010, 1009, 1006, 1005, 1004, 1001, 995, 992, 986, 980, 954, 944, 929, 910, 876, 854, 835, 813, 773, 755, 732, 717, 689, 678, 665, 652, 627, 613, 600, 586, 564, 553, 545, 534, 519, 509, 500, 488, 468, 457, 445, 430, 404, 392, 381, 373, 357, 351, 343, 338, 325, 319, 311, 305, 295, 288, 283, 277, 266, 260, 254, 247, 236, 230, 224, 219, 208, 201, 196, 191, 183, 177, 175, 171, 166, 164, 161, 160, 155, 152, 150, 147, 143, 143, 142, 142, 142, 142, 141, 141]"
"Trust","Teilnehmer A hat Ihnen 2 Punkte übermittelt.","Payback","1","undefined","9","0","3","60","1080","311","5","1","1109","0","legacy","[11, 21, 31, 41, 51, 61, 71, 81, 91, 101, 111, 121, 131, 141, 151, 161, 171, 181, 191, 201, 211, 221, 231, 241, 251, 261, 271, 281, 291, 301, 311, 321, 331, 341, 351, 361, 371, 381, 391, 401, 411, 421, 431, 441, 451, 461, 471, 481, 491, 501, 511, 521, 531, 541, 551, 561, 571, 581, 591, 601, 611, 621, 631, 641, 651, 661, 671, 681, 691, 701, 711, 721, 731, 741, 751, 761, 771, 781, 791, 801, 811, 821, 831, 841, 851, 861, 871, 881, 891, 901, 911, 921, 931, 941, 951, 961, 971, 981, 991, 1001, 1011, 1021, 1031, 1041, 1051, 1061, 1071, 1081, 1091, 1101]","1179","1920","[960, 960, 960, 960, 960, 960, 960, 960, 960, 960, 960, 960, 960, 960, 960, 960, 960, 960, 960, 960, 960, 960, 959, 958, 958, 956, 952, 949, 943, 939, 926, 918, 908, 897, 873, 863, 855, 844, 830, 820, 812, 803, 784, 774, 764, 756, 731, 718, 700, 683, 656, 640, 624, 612, 585, 569, 555, 544, 522, 515, 506, 500, 488, 480, 475, 467, 452, 443, 435, 426, 413, 405, 398, 394, 386, 383, 379, 376, 366, 361, 357, 350, 342, 339, 335, 331, 321, 315, 308, 303, 291, 283, 277, 269, 262, 259, 255, 253, 247, 245, 241, 239, 230, 228, 226, 224, 223, 223, 223, 223]","[1010, 1010, 1010, 1010, 1010, 1010, 1010, 1010, 1010, 1010, 1010, 1010, 1010, 1010, 1010, 1010, 1010, 1010, 1009, 1008, 1006, 1004, 1000, 996, 994, 989, 977, 970, 960, 948, 927, 915, 900, 885, 856, 841, 831, 815, 795, 783, 773, 763, 743, 731, 721, 711, 684, 666, 648, 629, 603, 587, 569, 554, 521, 501, 486, 469, 438, 426, 411, 399, 378, 368, 358, 348, 328, 318, 310, 299, 283, 274, 266, 259, 247, 241, 234, 228, 214, 208, 201, 194, 183, 178, 173, 167, 156, 149, 142, 138, 126, 121, 117, 111, 106, 103, 100, 98, 93, 92, 90, 88, 84, 82, 81, 80, 79, 79, 79, 79]"
"Trust","Teilnehmer A hat Ihnen 2 Punkte übermittelt.","Payback","1","undefined","10","0","3","60","1080","261","5","1","988","0","legacy","[11, 21, 31, 41, 51, 61, 71, 81, 91, 101, 111, 121, 131, 141, 151, 161, 171, 181, 191, 201, 211, 221, 231, 241, 251, 261, 271, 281, 291, 301, 311, 321, 331, 341, 351, 361, 371, 381, 391, 401, 411, 421, 431, 441, 451, 461, 471, 481, 491, 501, 511, 521, 531, 541, 551, 561, 571, 581, 591, 601, 611, 621, 631, 641, 651, 661, 671, 681, 691, 701, 711, 721, 731, 741, 751, 761, 771, 781, 791, 801, 811, 821, 831, 841, 851, 861, 871, 881, 891, 901, 911, 921, 931, 941, 951, 961, 971, 981]","1179","1920","[960, 960, 960, 960, 960, 960, 960, 960, 960, 960, 960, 960, 960, 960, 960, 960, 960, 960, 959, 958, 955, 945, 935, 923, 905, 871, 859, 831, 809, 767, 747, 734, 725, 702, 694, 685, 678, 661, 654, 647, 642, 633, 628, 625, 621, 610, 603, 598, 593, 582, 576, 569, 562, 544, 535, 522, 515, 496, 488, 481, 470, 457, 451, 447, 441, 430, 427, 422, 418, 409, 403, 395, 387, 372, 366, 360, 354, 346, 342, 338, 331, 320, 315, 309, 300, 286, 282, 274, 270, 264, 261, 261, 258, 256, 255, 254, 252, 250]","[1010, 1010, 1010, 1010, 1010, 1010, 1010, 1010, 1010, 1010, 1010, 1010, 1010, 1010, 1010, 1010, 1010, 1010, 1008, 1005, 1003, 992, 984, 974, 960, 934, 921, 902, 886, 851, 836, 823, 812, 785, 776, 766, 755, 733, 722, 712, 702, 684, 674, 664, 654, 630, 618, 607, 596, 570, 556, 541, 527, 493, 477, 462, 446, 413, 400, 387, 370, 346, 333, 322, 311, 291, 282, 273, 266, 250, 242, 232, 223, 209, 201, 196, 191, 184, 180, 177, 171, 163, 160, 156, 152, 143, 140, 135, 134, 129, 127, 126, 124, 122, 121, 119, 118, 117]"
"Trust","Teilnehmer A hat Ihnen 2 Punkte übermittelt.","Payback","0","undefined","11","0","3","60","1080","301","10","2","1228","0","legacy","[11, 21, 31, 41, 51, 61, 71, 81, 91, 101, 111, 121, 131, 141, 151, 161, 171, 181, 191, 201, 211, 221, 231, 241, 251, 261, 271, 281, 291, 301, 311, 321, 331, 341, 351, 361, 371, 381, 391, 401, 411, 421, 431, 441, 451, 461, 471, 481, 491, 501, 511, 521, 531, 541, 551, 561, 571, 581, 591, 601, 611, 621, 631, 641, 651, 661, 671, 681, 691, 701, 711, 721, 731, 741, 751, 761, 771, 781, 791, 801, 811, 821, 831, 841, 851, 861, 871, 881, 891, 901, 911, 921, 931, 941, 951, 961, 971, 981, 991, 1001, 1011, 1021, 1031, 1041, 1051, 1061, 1071, 1081, 1091, 1101, 1111, 1121, 1131, 1141, 1151, 1161, 1171, 1181, 1191, 1201, 1211, 1221]","1179","1920","[960, 960, 960, 960, 959, 959, 959, 959, 959, 959, 959, 959, 959, 960, 962, 962, 970, 974, 977, 981, 984, 993, 997, 1002, 1008, 1012, 1014, 1016, 1017, 1018, 1018, 1018, 1018, 1021, 1022, 1023, 1024, 1029, 1034, 1037, 1040, 1046, 1049, 1051, 1055, 1059, 1060, 1062, 1063, 1068, 1071, 1073, 1078, 1085, 1088, 1092, 1097, 1105, 1112, 1117, 1124, 1136, 1144, 1151, 1158, 1175, 1183, 1192, 1199, 1219, 1227, 1241, 1251, 1280, 1292, 1302, 1314, 1329, 1336, 1343, 1352, 1368, 1376, 1385, 1393, 1410, 1421, 1431, 1441, 1463, 1473, 1486, 1498, 1518, 1527, 1537, 1545, 1560, 1566, 1571, 1577, 1591, 1598, 1601, 1606, 1620, 1627, 1633, 1641, 1652, 1657, 1662, 1663, 1674, 1679, 1682, 1687, 1695, 1698, 1701, 1702, 1703]","[1010, 1010, 1010, 1010, 1010, 1010, 1010, 1010, 1010, 1010, 1010, 1010, 1010, 1005, 1002, 998, 993, 984, 981, 977, 973, 968, 966, 962, 959, 953, 949, 945, 942, 934, 929, 924, 917, 903, 893, 885, 876, 857, 845, 835, 828, 808, 798, 789, 775, 754, 746, 736, 724, 703, 693, 684, 676, 660, 655, 649, 642, 631, 625, 620, 613, 604, 598, 591, 585, 570, 564, 556, 548, 531, 523, 513, 504, 481, 471, 462, 451, 435, 426, 417, 408, 389, 380, 370, 361, 340, 328, 316, 305, 287, 277, 267, 257, 239, 231, 223, 215, 201, 195, 188, 181, 169, 164, 161, 157, 148, 142, 138, 135, 126, 122, 117, 115, 108, 104, 102, 98, 94, 92, 90, 89, 88]"
"Promise","Wie oft werden Sie die Hälfte zurückgeben?","Promise","1","undefined","11","0","4","60","1080","241","10","1","1024","0","legacy","[11, 21, 31, 41, 51, 61, 71, 81, 91, 101, 111, 121, 131, 141, 151, 161, 171, 181, 191, 201, 211, 221, 231, 241, 251, 261, 271, 281, 291, 301, 311, 321, 331, 341, 351, 361, 371, 381, 391, 401, 411, 421, 431, 441, 451, 461, 471, 481, 491, 501, 511, 521, 531, 541, 551, 561, 571, 581, 591, 601, 611, 621, 631, 641, 651, 661, 671, 681, 691, 701, 711, 721, 731, 741, 751, 761, 771, 781, 791, 801, 811, 821, 831, 841, 851, 861, 871, 881, 891, 901, 911, 921, 931, 941, 951, 961, 971, 981, 991, 1001, 1011, 1021]","1179","1920","[960, 960, 960, 960, 960, 960, 960, 960, 960, 960, 960, 960, 960, 960, 960, 959, 958, 957, 953, 940, 930, 920, 906, 881, 865, 850, 836, 807, 790, 774, 754, 723, 708, 693, 682, 666, 660, 655, 650, 635, 627, 618, 608, 585, 574, 563, 554, 535, 522, 510, 494, 473, 468, 461, 455, 445, 439, 432, 425, 410, 402, 395, 388, 376, 371, 367, 361, 353, 349, 343, 337, 325, 319, 312, 307, 299, 296, 294, 292, 290, 288, 285, 282, 279, 276, 275, 275, 271, 269, 268, 267, 264, 264, 262, 260, 257, 255, 254, 252, 252, 251, 251]","[1010, 1010, 1010, 1010, 1010, 1010, 1010, 1010, 1010, 1010, 1010, 1010, 1010, 1010, 1010, 1010, 1010, 1008, 1005, 989, 976, 961, 942, 909, 887, 869, 849, 809, 789, 769, 745, 709, 692, 671, 657, 634, 625, 618, 610, 590, 581, 571, 557, 531, 517, 509, 498, 475, 461, 450, 434, 415, 408, 402, 393, 378, 370, 363, 355, 337, 329, 320, 313, 298, 293, 285, 279, 267, 262, 255, 248, 237, 233, 227, 221, 209, 206, 202, 196, 192, 188, 184, 178, 171, 168, 166, 162, 157, 153, 151, 149, 144, 142, 139, 135, 129, 126, 123, 121, 118, 116, 116]"
"Trust","Teilnehmer A hat Ihnen 2 Punkte übermittelt.","Payback","1","undefined","12","0","4","60","1080","311","5","1","1197","0","legacy","[11, 21, 31, 41, 51, 61, 71, 81, 91, 101, 111, 121, 131, 141, 151, 161, 171, 181, 191, 201, 211, 221, 231, 241, 251, 261, 271, 281, 291, 301, 311, 321, 331, 341, 351, 361, 371, 381, 391, 401, 411, 421, 431, 441, 451, 461, 471, 481, 491, 501, 511, 521, 531, 541, 551, 561, 571, 581, 591, 601, 611, 621, 631, 641, 651, 661, 671, 681, 691, 701, 711, 721, 731, 741, 751, 761, 771, 781, 791, 801, 811, 821, 831, 841, 851, 861, 871, 881, 891, 901, 911, 921, 931, 941, 951, 961, 971, 981, 991, 1001, 1011, 1021, 1031, 1041, 1051, 1061, 1071, 1081, 1091, 1101, 1111, 1121, 1131, 1141, 1151, 1161, 1171, 1181, 1191]","1179","1920","[960, 960, 960, 960, 960, 960, 960, 960, 960, 960, 960, 960, 960, 960, 960, 960, 961, 961, 962, 962, 962, 964, 963, 962, 959, 957, 952, 949, 947, 943, 930, 916, 907, 893, 858, 842, 828, 814, 795, 786, 779, 769, 753, 745, 738, 730, 715, 710, 704, 700, 691, 686, 680, 677, 668, 666, 662, 658, 650, 645, 637, 629, 605, 592, 576, 556, 520, 497, 483, 472, 453, 442, 436, 430, 414, 409, 404, 398, 387, 381, 375, 368, 354, 345, 337, 331, 321, 318, 316, 313, 306, 305, 301, 298, 294, 292, 292, 289, 285, 284, 280, 278, 273, 272, 269, 269, 267, 267, 265, 264, 261, 260, 260, 258, 257, 257, 257, 257, 257]","[1010, 1010, 1010, 1010, 1010, 1010, 1010, 1010, 1010, 1010, 1010, 1010, 1010, 1010, 1010, 1010, 1010, 1010, 1010, 1010, 1010, 1009, 1005, 1001, 995, 989, 978, 972, 964, 956, 931, 909, 895, 876, 832, 812, 794, 775, 749, 737, 725, 713, 688, 678, 667, 655, 635, 626, 616, 607, 590, 582, 571, 562, 548, 540, 533, 526, 507, 497, 485, 475, 450, 440, 429, 415, 390, 374, 364, 355, 337, 329, 322, 316, 303, 296, 290, 283, 271, 263, 258, 251, 238, 232, 226, 220, 211, 206, 204, 198, 191, 187, 182, 179, 173, 172, 169, 167, 161, 159, 153, 150, 145, 144, 141, 140, 136, 135, 133, 131, 127, 124, 123, 122, 120, 120, 120, 120, 120]"
"Trust","Teilnehmer A hat Ihnen 2 Punkte übermittelt.","Payback","1","undefined","13","0","4","60","1080","211","5","1","932","0","legacy","[11, 21, 31, 41, 51, 61, 71, 81, 91, 101, 111, 121, 131, 141, 151, 161, 171, 181, 191, 201, 211, 221, 231, 241, 251, 261, 271, 281, 291, 301, 311, 321, 331, 341, 351, 361, 371, 381, 391, 401, 411, 421, 431, 441, 451, 461, 471, 481, 491, 501, 511, 521, 531, 541, 551, 561, 571, 581, 591, 601, 611, 621, 631, 641, 651, 661, 671, 681, 691, 701, 711, 721, 731, 741, 751, 761, 771, 781, 791, 801, 811, 821, 831, 841, 851, 861, 871, 881, 891, 901, 911, 921, 931]","1179","1920","[960, 960, 960, 960, 960, 960, 960, 960, 960, 960, 959, 956, 949, 925, 910, 900, 890, 868, 855, 843, 826, 795, 780, 765, 751, 725, 712, 700, 689, 669, 655, 648, 635, 612, 602, 590, 579, 555, 541, 529, 518, 502, 494, 487, 481, 465, 455, 442, 431, 408, 396, 380, 372, 357, 347, 338, 330, 316, 310, 305, 300, 288, 282, 274, 267, 255, 251, 247, 244, 239, 236, 233, 232, 227, 226, 223, 223, 220, 220, 220, 217, 216, 215, 213, 213, 211, 211, 211, 211, 211, 211, 211, 211]","[1010, 1010, 1010, 1010, 1010, 1010, 1010, 1010, 1010, 1010, 1010, 1010, 1010, 1000, 993, 988, 980, 964, 952, 943, 930, 902, 890, 872, 856, 830, 813, 798, 781, 754, 734, 721, 699, 656, 637, 616, 599, 567, 552, 537, 524, 504, 494, 485, 473, 449, 437, 419, 407, 378, 365, 345, 333, 312, 301, 291, 281, 264, 257, 251, 244, 232, 225, 218, 212, 201, 196, 190, 186, 178, 174, 169, 166, 159, 156, 153, 152, 149, 147, 145, 143, 138, 136, 132, 132, 130, 130, 130, 130, 130, 130, 130, 130]"
"Trust","Teilnehmer A hat Ihnen 2 Punkte übermittelt.","Payback","1","undefined","14","0","4","60","1080","191","5","1","836","0","legacy","[11, 21, 31, 41, 51, 61, 71, 81, 91, 101, 111, 121, 131, 141, 151, 161, 171, 181, 191, 201, 211, 221, 231, 241, 251, 261, 271, 281, 291, 301, 311, 321, 331, 341, 351, 361, 371, 381, 391, 401, 411, 421, 431, 441, 451, 461, 471, 481, 491, 501, 511, 521, 531, 541, 551, 561, 571, 581, 591, 601, 611, 621, 631, 641, 651, 661, 671, 681, 691, 701, 711, 721, 731, 741, 751, 761, 771, 781, 791, 801, 811, 821, 831]","1179","1920","[960, 960, 960, 960, 960, 960, 960, 960, 960, 960, 960, 960, 960, 954, 949, 940, 927, 873, 844, 817, 793, 753, 738, 725, 713, 688, 673, 656, 640, 602, 583, 567, 551, 519, 504, 494, 480, 453, 439, 427, 417, 403, 396, 392, 386, 380, 375, 372, 369, 359, 356, 353, 351, 347, 344, 342, 341, 334, 333, 330, 327, 319, 313, 311, 307, 300, 297, 293, 290, 282, 274, 267, 259, 244, 237, 231, 225, 219, 218, 216, 215, 215, 215]","[1010, 1010, 1010, 1010, 1010, 1010, 1010, 1010, 1010, 1010, 1010, 1010, 1008, 999, 996, 989, 982, 953, 939, 926, 911, 884, 872, 859, 844, 807, 787, 765, 742, 693, 670, 645, 623, 573, 548, 529, 505, 461, 439, 422, 408, 383, 371, 363, 354, 337, 329, 322, 313, 296, 289, 283, 277, 265, 260, 255, 251, 239, 234, 229, 225, 212, 205, 200, 195, 184, 181, 174, 170, 160, 152, 146, 139, 126, 121, 114, 109, 102, 98, 97, 96, 94, 94]"
"Promise","Wie oft werden Sie die Hälfte zurückgeben?","Promise","1","undefined","14","0","5","60","1080","191","5","1","687","0","legacy","[11, 21, 31, 41, 51, 61, 71, 81, 91, 101, 111, 121, 131, 141, 151, 161, 171, 181, 191, 201, 211, 221, 231, 241, 251, 261, 271, 281, 291, 301, 311, 321, 331, 341, 351, 361, 371, 381, 391, 401, 411, 421, 431, 441, 451, 461, 471, 481, 491, 501, 511, 521, 531, 541, 551, 561, 571, 581, 591, 601, 611, 621, 631, 641, 651, 661, 671, 681]","1179","1920","[960, 960, 960, 960, 960, 960, 960, 960, 960, 960, 960, 956, 952, 949, 945, 936, 929, 922, 914, 875, 853, 825, 797, 739, 708, 677, 650, 593, 566, 537, 514, 476, 460, 447, 434, 412, 400, 394, 386, 374, 367, 362, 356, 344, 340, 336, 331, 324, 316, 312, 309, 301, 297, 296, 294, 290, 288, 286, 283, 277, 276, 273, 272, 271, 271, 271, 270, 269]","[1010, 1010, 1010, 1010, 1010, 1010, 1010, 1010, 1010, 1010, 1010, 1002, 996, 990, 981, 965, 954, 942, 927, 869, 838, 809, 774, 698, 664, 629, 600, 534, 504, 470, 444, 398, 375, 358, 338, 311, 298, 287, 277, 260, 250, 244, 236, 220, 212, 206, 201, 190, 183, 178, 174, 167, 163, 161, 159, 153, 152, 149, 146, 140, 139, 137, 136, 134, 134, 132, 132, 131]"
"NoTrust","Teilnehmer A hat Ihnen keine 2 Punkte übermittelt.","Payback","1","undefined","15","0","5","60","1080","191","0","1","687","0","legacy","[11, 21, 31, 41, 51, 61, 71, 81, 91, 101, 111, 121, 131, 141, 151, 161, 171, 181, 191, 201, 211, 221, 231, 241, 251, 261, 271, 281, 291, 301, 311, 321, 331, 341, 351, 361, 371, 381, 391, 401, 411, 421, 431, 441, 451, 461, 471, 481, 491, 501, 511, 521, 531, 541, 551, 561, 571, 581, 591, 601, 611, 621, 631, 641, 651, 661, 671, 681]","1179","1920","[960, 960, 960, 960, 960, 960, 960, 960, 960, 960, 960, 956, 952, 949, 945, 936, 929, 922, 914, 875, 853, 825, 797, 739, 708, 677, 650, 593, 566, 537, 514, 476, 460, 447, 434, 412, 400, 394, 386, 374, 367, 362, 356, 344, 340, 336, 331, 324, 316, 312, 309, 301, 297, 296, 294, 290, 288, 286, 283, 277, 276, 273, 272, 271, 271, 271, 270, 269]","[1010, 1010, 1010, 1010, 1010, 1010, 1010, 1010, 1010, 1010, 1010, 1002, 996, 990, 981, 965, 954, 942, 927, 869, 838, 809, 774, 698, 664, 629, 600, 534, 504, 470, 444, 398, 375, 358, 338, 311, 298, 287, 277, 260, 250, 244, 236, 220, 212, 206, 201, 190, 183, 178, 174, 167, 163, 161, 159, 153, 152, 149, 146, 140, 139, 137, 136, 134, 134, 132, 132, 131]"
"Trust","Teilnehmer A hat Ihnen 2 Punkte übermittelt.","Payback","1","undefined","16","0","5","60","1080","211","5","1","1124","0","legacy","[11, 21, 31, 41, 51, 61, 71, 81, 91, 101, 111, 121, 131, 141, 151, 161, 171, 181, 191, 201, 211, 221, 231, 241, 251, 261, 271, 281, 291, 301, 311, 321, 331, 341, 351, 361, 371, 381, 391, 401, 411, 421, 431, 441, 451, 461, 471, 481, 491, 501, 511, 521, 531, 541, 551, 561, 571, 581, 591, 601, 611, 621, 631, 641, 651, 661, 671, 681, 691, 701, 711, 721, 731, 741, 751, 761, 771, 781, 791, 801, 811, 821, 831, 841, 851, 861, 871, 881, 891, 901, 911, 921, 931, 941, 951, 961, 971, 981, 991, 1001, 1011, 1021, 1031, 1041, 1051, 1061, 1071, 1081, 1091, 1101, 1111, 1121]","1179","1920","[960, 960, 960, 960, 960, 960, 960, 960, 960, 960, 960, 960, 960, 960, 960, 954, 946, 931, 925, 918, 912, 900, 895, 883, 873, 843, 826, 803, 783, 750, 731, 720, 711, 695, 687, 679, 669, 654, 646, 640, 634, 623, 619, 613, 608, 596, 589, 580, 573, 561, 554, 546, 541, 529, 524, 517, 512, 499, 493, 488, 483, 471, 461, 455, 444, 426, 415, 406, 397, 380, 371, 364, 355, 341, 335, 332, 327, 318, 314, 309, 304, 295, 289, 287, 282, 281, 279, 277, 275, 273, 270, 267, 263, 259, 258, 256, 255, 253, 252, 251, 250, 248, 247, 246, 245, 244, 244, 243, 243, 243, 243, 243]","[1010, 1010, 1010, 1010, 1010, 1010, 1010, 1010, 1010, 1010, 1010, 1010, 1010, 1010, 1004, 993, 983, 961, 951, 940, 931, 909, 898, 880, 864, 819, 794, 768, 745, 704, 683, 670, 656, 635, 618, 608, 594, 572, 562, 553, 544, 527, 518, 509, 501, 483, 473, 461, 452, 434, 424, 415, 409, 394, 388, 381, 375, 363, 357, 353, 345, 333, 325, 318, 311, 295, 285, 278, 271, 258, 250, 244, 237, 224, 219, 216, 211, 202, 199, 194, 191, 185, 181, 179, 176, 175, 173, 171, 170, 167, 165, 162, 160, 156, 155, 153, 151, 148, 145, 145, 141, 138, 136, 135, 133, 130, 130, 129, 127, 126, 125, 125]"
"Trust","Teilnehmer A hat Ihnen 2 Punkte übermittelt.","Payback","1","undefined","17","0","5","60","1080","191","5","1","878","0","legacy","[11, 21, 31, 41, 51, 61, 71, 81, 91, 101, 111, 121, 131, 141, 151, 161, 171, 181, 191, 201, 211, 221, 231, 241, 251, 261, 271, 281, 291, 301, 311, 321, 331, 341, 351, 361, 371, 381, 391, 401, 411, 421, 431, 441, 451, 461, 471, 481, 491, 501, 511, 521, 531, 541, 551, 561, 571, 581, 591, 601, 611, 621, 631, 641, 651, 661, 671, 681, 691, 701, 711, 721, 731, 741, 751, 761, 771, 781, 791, 801, 811, 821, 831, 841, 851, 861, 871]","1179","1920","[960, 960, 960, 960, 960, 960, 960, 960, 960, 960, 959, 958, 955, 954, 948, 945, 940, 937, 926, 918, 907, 891, 862, 846, 827, 808, 762, 735, 711, 687, 655, 640, 629, 623, 613, 609, 604, 598, 587, 582, 576, 572, 562, 558, 554, 552, 547, 544, 540, 534, 522, 517, 510, 503, 492, 485, 480, 471, 446, 433, 419, 400, 376, 366, 356, 347, 330, 321, 314, 305, 289, 282, 274, 268, 258, 254, 250, 247, 242, 241, 239, 237, 235, 234, 234, 234, 233]","[1010, 1010, 1010, 1010, 1010, 1010, 1010, 1010, 1010, 1010, 1005, 999, 994, 989, 974, 967, 956, 950, 927, 912, 895, 875, 833, 810, 787, 766, 711, 684, 660, 638, 600, 582, 563, 550, 529, 520, 510, 501, 481, 471, 462, 452, 435, 429, 420, 413, 398, 391, 381, 372, 355, 346, 338, 331, 318, 312, 304, 299, 283, 276, 269, 257, 239, 231, 222, 215, 198, 190, 184, 176, 163, 158, 152, 147, 138, 134, 130, 128, 124, 122, 120, 117, 114, 112, 112, 111, 110]"
"Promise","Wie oft werden Sie die Hälfte zurückgeben?","Promise","1","undefined","17","0","6","60","1080","211","5","1","928","0","legacy","[11, 21, 31, 41, 51, 61, 71, 81, 91, 101, 111, 121, 131, 141, 151, 161, 171, 181, 191, 201, 211, 221, 231, 241, 251, 261, 271, 281, 291, 301, 311, 321, 331, 341, 351, 361, 371, 381, 391, 401, 411, 421, 431, 441, 451, 461, 471, 481, 491, 501, 511, 521, 531, 541, 551, 561, 571, 581, 591, 601, 611, 621, 631, 641, 651, 661, 671, 681, 691, 701, 711, 721, 731, 741, 751, 761, 771, 781, 791, 801, 811, 821, 831, 841, 851, 861, 871, 881, 891, 901, 911, 921]","1179","1920","[960, 960, 960, 960, 960, 960, 960, 960, 960, 960, 960, 960, 958, 953, 944, 922, 913, 900, 888, 872, 863, 851, 836, 807, 793, 775, 758, 712, 683, 663, 638, 605, 590, 574, 559, 533, 524, 516, 511, 495, 489, 480, 475, 460, 454, 449, 444, 437, 433, 429, 424, 413, 408, 404, 398, 387, 381, 375, 370, 361, 358, 356, 354, 348, 346, 343, 339, 332, 329, 324, 321, 313, 310, 308, 305, 302, 299, 296, 294, 289, 287, 284, 280, 274, 272, 269, 267, 264, 264, 264, 264, 263]","[1010, 1010, 1010, 1010, 1010, 1010, 1010, 1010, 1010, 1010, 1010, 1010, 1007, 1002, 996, 981, 974, 967, 959, 944, 937, 927, 909, 876, 858, 838, 817, 772, 746, 723, 696, 660, 642, 624, 606, 576, 564, 553, 540, 513, 503, 488, 477, 454, 443, 434, 421, 404, 395, 384, 374, 356, 346, 339, 329, 311, 302, 295, 289, 279, 273, 270, 266, 255, 252, 247, 241, 231, 226, 220, 214, 204, 201, 197, 191, 183, 180, 173, 170, 161, 158, 152, 147, 140, 137, 132, 130, 127, 125, 125, 125, 124]"
"Trust","Teilnehmer A hat Ihnen 2 Punkte übermittelt.","Payback","0","undefined","18","0","6","60","1080","191","10","2","973","0","legacy","[11, 21, 31, 41, 51, 61, 71, 81, 91, 101, 111, 121, 131, 141, 151, 161, 171, 181, 191, 201, 211, 221, 231, 241, 251, 261, 271, 281, 291, 301, 311, 321, 331, 341, 351, 361, 371, 381, 391, 401, 411, 421, 431, 441, 451, 461, 471, 481, 491, 501, 511, 521, 531, 541, 551, 561, 571, 581, 591, 601, 611, 621, 631, 641, 651, 661, 671, 681, 691, 701, 711, 721, 731, 741, 751, 761, 771, 781, 791, 801, 811, 821, 831, 841, 851, 861, 871, 881, 891, 901, 911, 921, 931, 941, 951, 961, 971]","1179","1920","[960, 960, 960, 960, 960, 960, 960, 960, 960, 960, 960, 960, 960, 960, 964, 968, 972, 976, 989, 996, 1001, 1007, 1028, 1044, 1064, 1082, 1119, 1138, 1153, 1173, 1209, 1226, 1242, 1249, 1271, 1283, 1292, 1299, 1314, 1322, 1328, 1333, 1344, 1349, 1353, 1357, 1364, 1367, 1372, 1377, 1387, 1391, 1394, 1398, 1406, 1411, 1413, 1419, 1429, 1434, 1441, 1446, 1456, 1460, 1465, 1468, 1476, 1479, 1484, 1489, 1500, 1505, 1511, 1520, 1532, 1538, 1546, 1553, 1566, 1574, 1578, 1587, 1599, 1604, 1607, 1613, 1623, 1628, 1632, 1638, 1648, 1653, 1655, 1659, 1662, 1663, 1663]","[1010, 1010, 1010, 1010, 1010, 1010, 1010, 1011, 1011, 1011, 1011, 1010, 1009, 1005, 993, 986, 977, 969, 939, 921, 908, 896, 865, 844, 821, 798, 754, 733, 715, 692, 653, 635, 615, 601, 561, 535, 514, 496, 460, 445, 427, 414, 390, 380, 369, 361, 343, 335, 327, 318, 305, 299, 294, 288, 278, 273, 268, 263, 252, 247, 240, 235, 228, 225, 220, 217, 210, 208, 205, 201, 193, 190, 185, 181, 175, 170, 166, 162, 155, 152, 150, 145, 140, 139, 137, 134, 127, 124, 121, 118, 112, 109, 107, 106, 103, 103, 102]"
"Trust","Teilnehmer A hat Ihnen 2 Punkte übermittelt.","Payback","0","undefined","19","0","6","60","1080","221","10","2","1029","0","legacy","[11, 21, 31, 41, 51, 61, 71, 81, 91, 101, 111, 121, 131, 141, 151, 161, 171, 181, 191, 201, 211, 221, 231, 241, 251, 261, 271, 281, 291, 301, 311, 321, 331, 341, 351, 361, 371, 381, 391, 401, 411, 421, 431, 441, 451, 461, 471, 481, 491, 501, 511, 521, 531, 541, 551, 561, 571, 581, 591, 601, 611, 621, 631, 641, 651, 661, 671, 681, 691, 701, 711, 721, 731, 741, 751, 761, 771, 781, 791, 801, 811, 821, 831, 841, 851, 861, 871, 881, 891, 901, 911, 921, 931, 941, 951, 961, 971, 981, 991, 1001, 1011, 1021]","1179","1920","[960, 960, 960, 960, 960, 960, 960, 960, 960, 960, 960, 960, 960, 961, 964, 966, 969, 971, 979, 981, 985, 992, 996, 1001, 1007, 1028, 1040, 1052, 1060, 1082, 1093, 1105, 1114, 1132, 1140, 1151, 1161, 1196, 1220, 1256, 1290, 1307, 1309, 1319, 1320, 1320, 1324, 1328, 1331, 1344, 1350, 1354, 1363, 1372, 1380, 1386, 1393, 1410, 1417, 1423, 1426, 1435, 1439, 1444, 1447, 1453, 1458, 1461, 1464, 1471, 1474, 1478, 1482, 1493, 1497, 1502, 1509, 1522, 1527, 1535, 1543, 1559, 1566, 1573, 1581, 1590, 1597, 1601, 1605, 1613, 1617, 1620, 1624, 1627, 1629, 1631, 1632, 1635, 1637, 1637, 1638, 1640]","[1010, 1010, 1010, 1010, 1010, 1010, 1010, 1010, 1010, 1010, 1010, 1010, 1010, 1010, 1005, 1001, 992, 985, 966, 956, 945, 925, 914, 902, 890, 866, 851, 836, 824, 797, 783, 770, 760, 738, 729, 717, 705, 675, 662, 640, 629, 618, 617, 609, 609, 609, 604, 594, 584, 561, 552, 543, 530, 507, 494, 481, 468, 439, 427, 415, 406, 384, 374, 364, 355, 338, 330, 322, 316, 303, 299, 291, 285, 271, 265, 258, 251, 236, 230, 219, 212, 197, 191, 183, 174, 163, 156, 149, 145, 135, 130, 126, 120, 117, 114, 111, 109, 105, 103, 102, 101, 99]"
"Trust","Teilnehmer A hat Ihnen 2 Punkte übermittelt.","Payback","0","undefined","20","0","6","60","1080","181","10","2","975","0","legacy","[11, 21, 31, 41, 51, 61, 71, 81, 91, 101, 111, 121, 131, 141, 151, 161, 171, 181, 191, 201, 211, 221, 231, 241, 251, 261, 271, 281, 291, 301, 311, 321, 331, 341, 351, 361, 371, 381, 391, 401, 411, 421, 431, 441, 451, 461, 471, 481, 491, 501, 511, 521, 531, 541, 551, 561, 571, 581, 591, 601, 611, 621, 631, 641, 651, 661, 671, 681, 691, 701, 711, 721, 731, 741, 751, 761, 771, 781, 791, 801, 811, 821, 831, 841, 851, 861, 871, 881, 891, 901, 911, 921, 931, 941, 951, 961, 971]","1179","1920","[960, 960, 960, 960, 960, 960, 960, 960, 960, 960, 960, 961, 962, 967, 980, 990, 1001, 1008, 1031, 1048, 1060, 1076, 1109, 1120, 1130, 1142, 1161, 1169, 1176, 1185, 1202, 1209, 1221, 1227, 1244, 1249, 1255, 1261, 1266, 1278, 1284, 1293, 1300, 1315, 1321, 1329, 1338, 1352, 1359, 1369, 1376, 1391, 1399, 1405, 1412, 1426, 1434, 1441, 1449, 1464, 1473, 1480, 1489, 1507, 1515, 1524, 1530, 1545, 1552, 1560, 1566, 1581, 1587, 1592, 1598, 1608, 1614, 1619, 1624, 1637, 1639, 1646, 1652, 1662, 1665, 1668, 1669, 1673, 1677, 1679, 1682, 1688, 1691, 1691, 1693, 1694, 1694]","[1010, 1010, 1010, 1010, 1010, 1010, 1010, 1010, 1010, 1010, 1010, 1009, 1005, 998, 978, 966, 949, 936, 905, 882, 867, 849, 815, 798, 779, 762, 735, 724, 711, 699, 672, 660, 645, 634, 610, 598, 588, 579, 571, 550, 542, 530, 521, 502, 494, 485, 475, 456, 447, 437, 428, 411, 401, 393, 386, 368, 360, 352, 342, 324, 315, 306, 297, 279, 272, 262, 256, 241, 234, 227, 221, 211, 207, 202, 199, 188, 184, 179, 175, 166, 161, 156, 152, 143, 141, 137, 135, 129, 125, 121, 116, 111, 109, 107, 105, 104, 104]"
"Promise","Wie oft werden Sie die Hälfte zurückgeben?","Promise","1","undefined","20","0","7","60","1080","191","10","1","856","0","legacy","[11, 21, 31, 41, 51, 61, 71, 81, 91, 101, 111, 121, 131, 141, 151, 161, 171, 181, 191, 201, 211, 221, 231, 241, 251, 261, 271, 281, 291, 301, 311, 321, 331, 341, 351, 361, 371, 381, 391, 401, 411, 421, 431, 441, 451, 461, 471, 481, 491, 501, 511, 521, 531, 541, 551, 561, 571, 581, 591, 601, 611, 621, 631, 641, 651, 661, 671, 681, 691, 701, 711, 721, 731, 741, 751, 761, 771, 781, 791, 801, 811, 821, 831, 841, 851]","1179","1920","[960, 960, 960, 960, 960, 960, 960, 960, 960, 960, 960, 960, 958, 955, 952, 941, 933, 922, 909, 864, 844, 823, 804, 779, 768, 760, 752, 738, 733, 726, 720, 709, 704, 699, 695, 685, 679, 673, 667, 647, 635, 626, 610, 586, 573, 557, 546, 515, 499, 486, 470, 446, 433, 424, 413, 402, 397, 390, 383, 370, 364, 358, 352, 340, 336, 330, 324, 309, 300, 295, 288, 280, 278, 277, 273, 269, 264, 261, 258, 253, 253, 253, 253, 253, 251]","[1010, 1010, 1010, 1010, 1010, 1010, 1010, 1010, 1010, 1010, 1010, 1003, 1001, 995, 989, 972, 963, 951, 934, 891, 873, 854, 837, 805, 788, 778, 766, 744, 735, 723, 713, 691, 679, 667, 657, 633, 618, 606, 593, 559, 540, 524, 501, 463, 438, 413, 392, 345, 322, 305, 282, 251, 234, 217, 203, 181, 171, 161, 152, 133, 126, 118, 111, 94, 89, 84, 79, 70, 65, 62, 58, 53, 52, 51, 50, 48, 45, 45, 45, 43, 43, 43, 43, 43, 43]"
"Trust","Teilnehmer A hat Ihnen 2 Punkte übermittelt.","Payback","0","undefined","21","0","7","60","1080","161","10","2","852","0","legacy","[11, 21, 31, 41, 51, 61, 71, 81, 91, 101, 111, 121, 131, 141, 151, 161, 171, 181, 191, 201, 211, 221, 231, 241, 251, 261, 271, 281, 291, 301, 311, 321, 331, 341, 351, 361, 371, 381, 391, 401, 411, 421, 431, 441, 451, 461, 471, 481, 491, 501, 511, 521, 531, 541, 551, 561, 571, 581, 591, 601, 611, 621, 631, 641, 651, 661, 671, 681, 691, 701, 711, 721, 731, 741, 751, 761, 771, 781, 791, 801, 811, 821, 831, 841, 851]","1179","1920","[960, 960, 960, 960, 960, 960, 960, 960, 960, 960, 961, 964, 968, 983, 997, 1007, 1017, 1033, 1042, 1049, 1060, 1078, 1087, 1099, 1110, 1135, 1150, 1159, 1169, 1184, 1191, 1200, 1208, 1231, 1241, 1254, 1263, 1283, 1293, 1304, 1319, 1341, 1352, 1369, 1383, 1407, 1421, 1433, 1443, 1461, 1467, 1475, 1481, 1493, 1501, 1507, 1517, 1535, 1541, 1547, 1553, 1565, 1569, 1576, 1580, 1590, 1594, 1600, 1605, 1619, 1626, 1634, 1640, 1658, 1665, 1673, 1680, 1688, 1690, 1692, 1692, 1692, 1692, 1692, 1692]","[1010, 1010, 1010, 1010, 1010, 1010, 1010, 1010, 1010, 1009, 1004, 997, 989, 967, 945, 929, 908, 869, 848, 828, 805, 761, 740, 718, 697, 651, 626, 608, 589, 554, 536, 515, 495, 442, 416, 392, 369, 314, 293, 272, 247, 209, 193, 174, 159, 134, 121, 110, 101, 88, 83, 79, 74, 67, 64, 62, 57, 53, 52, 52, 51, 49, 48, 47, 47, 47, 47, 47, 47, 47, 47, 47, 47, 47, 47, 48, 49, 53, 54, 55, 55, 55, 55, 55, 55]"
"Trust","Teilnehmer A hat Ihnen 2 Punkte übermittelt.","Payback","0","undefined","22","0","7","60","1080","271","10","2","1084","0","legacy","[11, 21, 31, 41, 51, 61, 71, 81, 91, 101, 111, 121, 131, 141, 151, 161, 171, 181, 191, 201, 211, 221, 231, 241, 251, 261, 271, 281, 291, 301, 311, 321, 331, 341, 351, 361, 371, 381, 391, 401, 411, 421, 431, 441, 451, 461, 471, 481, 491, 501, 511, 521, 531, 541, 551, 561, 571, 581, 591, 601, 611, 621, 631, 641, 651, 661, 671, 681, 691, 701, 711, 721, 731, 741, 751, 761, 771, 781, 791, 801, 811, 821, 831, 841, 851, 861, 871, 881, 891, 901, 911, 921, 931, 941, 951, 961, 971, 981, 991, 1001, 1011, 1021, 1031, 1041, 1051, 1061, 1071, 1081]","1179","1920","[960, 960, 960, 960, 960, 960, 960, 960, 960, 960, 960, 960, 960, 960, 960, 960, 960, 962, 962, 962, 965, 972, 976, 981, 988, 1002, 1012, 1019, 1030, 1058, 1076, 1090, 1108, 1138, 1151, 1171, 1187, 1231, 1251, 1272, 1289, 1321, 1335, 1348, 1358, 1372, 1381, 1388, 1394, 1406, 1411, 1417, 1423, 1433, 1438, 1443, 1447, 1458, 1464, 1468, 1475, 1486, 1489, 1495, 1499, 1507, 1510, 1515, 1520, 1531, 1536, 1541, 1545, 1553, 1557, 1561, 1564, 1573, 1578, 1582, 1584, 1592, 1595, 1598, 1600, 1607, 1610, 1614, 1618, 1625, 1628, 1629, 1632, 1638, 1638, 1641, 1642, 1645, 1649, 1651, 1654, 1658, 1658, 1659, 1660, 1661, 1661, 1661]","[1010, 1010, 1010, 1010, 1010, 1010, 1010, 1010, 1010, 1010, 1010, 1010, 1010, 1010, 1010, 1010, 1009, 1006, 1004, 1001, 997, 986, 980, 973, 966, 948, 938, 930, 921, 898, 881, 871, 858, 832, 819, 803, 789, 752, 734, 715, 694, 660, 642, 628, 613, 594, 584, 574, 564, 546, 537, 528, 519, 502, 492, 483, 474, 454, 446, 436, 425, 406, 399, 392, 383, 368, 362, 353, 346, 327, 318, 309, 302, 287, 280, 271, 264, 249, 243, 237, 232, 220, 214, 209, 203, 192, 187, 182, 176, 166, 163, 158, 155, 146, 145, 141, 139, 133, 129, 125, 123, 117, 116, 114, 113, 112, 111, 111]"
"Trust","Teilnehmer A hat Ihnen 2 Punkte übermittelt.","Payback","0","undefined","23","0","7","60","1080","171","10","2","1018","0","legacy","[11, 21, 31, 41, 51, 61, 71, 81, 91, 101, 111, 121, 131, 141, 151, 161, 171, 181, 191, 201, 211, 221, 231, 241, 251, 261, 271, 281, 291, 301, 311, 321, 331, 341, 351, 361, 371, 381, 391, 401, 411, 421, 431, 441, 451, 461, 471, 481, 491, 501, 511, 521, 531, 541, 551, 561, 571, 581, 591, 601, 611, 621, 631, 641, 651, 661, 671, 681, 691, 701, 711, 721, 731, 741, 751, 761, 771, 781, 791, 801, 811, 821, 831, 841, 851, 861, 871, 881, 891, 901, 911, 921, 931, 941, 951, 961, 971, 981, 991, 1001, 1011]","1179","1920","[960, 960, 960, 960, 960, 960, 960, 960, 962, 963, 966, 968, 974, 978, 980, 986, 1007, 1022, 1034, 1050, 1083, 1103, 1130, 1157, 1200, 1222, 1240, 1257, 1287, 1300, 1312, 1320, 1340, 1346, 1352, 1356, 1366, 1369, 1372, 1376, 1382, 1385, 1388, 1394, 1404, 1410, 1414, 1418, 1429, 1433, 1437, 1442, 1449, 1453, 1456, 1460, 1470, 1473, 1477, 1481, 1488, 1494, 1498, 1502, 1508, 1512, 1515, 1519, 1529, 1534, 1540, 1546, 1558, 1565, 1570, 1574, 1581, 1586, 1589, 1597, 1608, 1616, 1621, 1624, 1632, 1634, 1639, 1641, 1648, 1650, 1654, 1657, 1664, 1666, 1668, 1669, 1670, 1670, 1670, 1670, 1671]","[1010, 1010, 1010, 1010, 1010, 1010, 1010, 1010, 1010, 1010, 1009, 1004, 990, 981, 973, 963, 936, 919, 904, 888, 847, 826, 797, 768, 725, 701, 680, 660, 618, 600, 579, 563, 525, 513, 496, 486, 464, 453, 444, 434, 421, 412, 406, 397, 381, 373, 367, 360, 344, 335, 328, 320, 307, 299, 294, 288, 274, 268, 262, 254, 243, 235, 230, 225, 218, 214, 211, 208, 200, 197, 194, 190, 185, 183, 180, 178, 174, 170, 168, 164, 159, 153, 151, 146, 141, 140, 137, 136, 131, 129, 127, 124, 120, 119, 118, 117, 116, 116, 116, 116, 115]"
CHF,TotCHF,final_payoff,sum
"7.5","27.5","[0, 5, 5, 5]","15"
