Condition,PromiseStage,Stage,accuracy,avg_rt,count_decision_sequence,count_loop1,count_trial_sequence,font_size,height,init_time,payoff,response,rt,subject_nr,synth_backend,tTrajectory,time_experiment,width,xTrajectory,yTrajectory
"Promise","Wie oft werden Sie die Hälfte zurückgeben?","Promise","1","undefined","NA","0","0","60","1080","241","NA","1","1039","0","legacy","[11, 21, 31, 41, 51, 61, 71, 81, 91, 101, 111, 121, 131, 141, 151, 161, 171, 181, 191, 201, 211, 221, 231, 241, 251, 261, 271, 281, 291, 301, 311, 321, 331, 341, 351, 361, 371, 381, 391, 401, 411, 421, 431, 441, 451, 461, 471, 481, 491, 501, 511, 521, 531, 541, 551, 561, 571, 581, 591, 601, 611, 621, 631, 641, 651, 661, 671, 681, 691, 701, 711, 721, 731, 741, 751, 761, 771, 781, 791, 801, 811, 821, 831, 841, 851, 861, 871, 881, 891, 901, 911, 921, 931, 941, 951, 961, 971, 981, 991, 1001, 1011, 1021, 1031]","1164","1920","[960, 960, 960, 960, 960, 960, 960, 960, 960, 960, 960, 960, 960, 960, 960, 960, 960, 960, 960, 952, 944, 932, 916, 856, 818, 777, 735, 651, 615, 594, 567, 524, 508, 492, 478, 461, 451, 444, 439, 426, 419, 414, 408, 393, 384, 376, 369, 358, 354, 350, 345, 338, 333, 329, 324, 312, 307, 301, 296, 283, 279, 273, 268, 259, 255, 250, 247, 237, 232, 231, 226, 224, 224, 222, 222, 221, 221, 221, 221, 221, 221, 221, 221, 221, 221, 221, 221, 221, 221, 221, 221, 221, 221, 221, 221, 221, 221, 221, 221, 221, 221, 221, 221]","[1010, 1010, 1010, 1010, 1010, 1010, 1010, 1010, 1010, 1010, 1010, 1010, 1010, 1010, 1010, 1010, 1010, 1010, 1010, 1008, 1003, 994, 983, 929, 881, 836, 788, 694, 654, 623, 589, 530, 507, 478, 455, 423, 411, 400, 389, 367, 357, 349, 341, 321, 311, 301, 293, 277, 269, 261, 251, 235, 226, 216, 207, 187, 178, 171, 161, 142, 133, 124, 115, 99, 92, 87, 81, 71, 67, 65, 63, 61, 61, 60, 60, 60, 60, 60, 60, 60, 60, 60, 60, 60, 60, 60, 60, 60, 60, 60, 60, 60, 60, 60, 60, 60, 60, 60, 60, 60, 60, 60, 60]"
Cond,DecisionB,Stage,accuracy,avg_rt,count_decision_sequence,count_loop1,count_trial_sequence,font_size,height,init_time,payoff,response,rt,subject_nr,synth_backend,tTrajectory,time_experiment,width,xTrajectory,yTrajectory
"Trust","Teilnehmer A hat Ihnen 2 Punkte übermittelt.","Payback","1","undefined","0","0","0","60","1080","221","5","1","868","0","legacy","[11, 21, 31, 41, 51, 61, 71, 81, 91, 101, 111, 121, 131, 141, 151, 161, 171, 181, 191, 201, 211, 221, 231, 241, 251, 261, 271, 281, 291, 301, 311, 321, 331, 341, 351, 361, 371, 381, 391, 401, 411, 421, 431, 441, 451, 461, 471, 481, 491, 501, 511, 521, 531, 541, 551, 561, 571, 581, 591, 601, 611, 621, 631, 641, 651, 661, 671, 681, 691, 701, 711, 721, 731, 741, 751, 761, 771, 781, 791, 801, 811, 821, 831, 841, 851, 861]","1164","1920","[960, 960, 960, 960, 960, 960, 960, 960, 960, 960, 960, 960, 960, 960, 960, 960, 960, 955, 948, 941, 928, 870, 831, 800, 774, 710, 680, 650, 622, 561, 532, 508, 480, 437, 422, 412, 400, 381, 369, 361, 354, 341, 332, 323, 312, 290, 280, 273, 267, 258, 251, 245, 239, 228, 225, 222, 219, 216, 213, 211, 210, 207, 207, 206, 206, 205, 203, 202, 201, 198, 196, 193, 192, 187, 186, 184, 182, 179, 179, 178, 177, 177, 177, 177, 177, 177]","[1010, 1010, 1010, 1010, 1010, 1010, 1010, 1010, 1010, 1010, 1010, 1010, 1010, 1010, 1010, 1010, 1010, 1005, 998, 990, 976, 930, 902, 876, 854, 800, 768, 723, 679, 588, 538, 492, 451, 389, 369, 353, 338, 314, 299, 290, 283, 262, 249, 233, 220, 189, 177, 169, 163, 154, 150, 144, 140, 133, 130, 127, 126, 122, 121, 119, 119, 117, 117, 117, 117, 116, 116, 115, 115, 112, 111, 110, 109, 105, 104, 103, 101, 100, 99, 98, 97, 97, 97, 97, 97, 97]"
"NoTrust","Teilnehmer A hat Ihnen keine 2 Punkte übermittelt.","Payback","1","undefined","1","0","0","60","1080","221","0","1","868","0","legacy","[11, 21, 31, 41, 51, 61, 71, 81, 91, 101, 111, 121, 131, 141, 151, 161, 171, 181, 191, 201, 211, 221, 231, 241, 251, 261, 271, 281, 291, 301, 311, 321, 331, 341, 351, 361, 371, 381, 391, 401, 411, 421, 431, 441, 451, 461, 471, 481, 491, 501, 511, 521, 531, 541, 551, 561, 571, 581, 591, 601, 611, 621, 631, 641, 651, 661, 671, 681, 691, 701, 711, 721, 731, 741, 751, 761, 771, 781, 791, 801, 811, 821, 831, 841, 851, 861]","1164","1920","[960, 960, 960, 960, 960, 960, 960, 960, 960, 960, 960, 960, 960, 960, 960, 960, 960, 955, 948, 941, 928, 870, 831, 800, 774, 710, 680, 650, 622, 561, 532, 508, 480, 437, 422, 412, 400, 381, 369, 361, 354, 341, 332, 323, 312, 290, 280, 273, 267, 258, 251, 245, 239, 228, 225, 222, 219, 216, 213, 211, 210, 207, 207, 206, 206, 205, 203, 202, 201, 198, 196, 193, 192, 187, 186, 184, 182, 179, 179, 178, 177, 177, 177, 177, 177, 177]","[1010, 1010, 1010, 1010, 1010, 1010, 1010, 1010, 1010, 1010, 1010, 1010, 1010, 1010, 1010, 1010, 1010, 1005, 998, 990, 976, 930, 902, 876, 854, 800, 768, 723, 679, 588, 538, 492, 451, 389, 369, 353, 338, 314, 299, 290, 283, 262, 249, 233, 220, 189, 177, 169, 163, 154, 150, 144, 140, 133, 130, 127, 126, 122, 121, 119, 119, 117, 117, 117, 117, 116, 116, 115, 115, 112, 111, 110, 109, 105, 104, 103, 101, 100, 99, 98, 97, 97, 97, 97, 97, 97]"
"Trust","Teilnehmer A hat Ihnen 2 Punkte übermittelt.","Payback","0","undefined","2","0","0","60","1080","261","10","2","1533","0","legacy","[11, 21, 31, 41, 51, 61, 71, 81, 91, 101, 111, 121, 131, 141, 151, 161, 171, 181, 191, 201, 211, 221, 231, 241, 251, 261, 271, 281, 291, 301, 311, 321, 331, 341, 351, 361, 371, 381, 391, 401, 411, 421, 431, 441, 451, 461, 471, 481, 491, 501, 511, 521, 531, 541, 551, 561, 571, 581, 591, 601, 611, 621, 631, 641, 651, 661, 671, 681, 691, 701, 711, 721, 731, 741, 751, 761, 771, 781, 791, 801, 811, 821, 831, 841, 851, 861, 871, 881, 891, 901, 911, 921, 931, 941, 951, 961, 971, 981, 991, 1001, 1011, 1021, 1031, 1041, 1051, 1061, 1071, 1081, 1091, 1101, 1111, 1121, 1131, 1141, 1151, 1161, 1171, 1181, 1191, 1201, 1211, 1221, 1231, 1241, 1251, 1261, 1271, 1281, 1291, 1301, 1311, 1321, 1331, 1341, 1351, 1361, 1371, 1381, 1391, 1401, 1411, 1421, 1431, 1441, 1451, 1461, 1471, 1481, 1491, 1501, 1511, 1521, 1531]","1164","1920","[960, 960, 960, 960, 960, 960, 960, 960, 960, 960, 960, 960, 960, 960, 960, 960, 960, 960, 960, 960, 962, 968, 997, 1023, 1051, 1080, 1156, 1199, 1238, 1271, 1345, 1381, 1413, 1442, 1508, 1529, 1551, 1571, 1598, 1614, 1627, 1636, 1657, 1667, 1677, 1686, 1701, 1708, 1714, 1719, 1730, 1734, 1738, 1745, 1751, 1753, 1754, 1754, 1755, 1755, 1755, 1755, 1755, 1755, 1755, 1755, 1755, 1755, 1755, 1755, 1753, 1753, 1753, 1753, 1753, 1753, 1753, 1753, 1753, 1753, 1752, 1752, 1751, 1751, 1751, 1750, 1750, 1750, 1750, 1750, 1750, 1750, 1750, 1750, 1750, 1750, 1750, 1750, 1750, 1750, 1750, 1750, 1750, 1750, 1750, 1750, 1750, 1750, 1750, 1750, 1750, 1750, 1750, 1750, 1750, 1750, 1750, 1750, 1750, 1750, 1750, 1750, 1750, 1750, 1750, 1750, 1750, 1750, 1750, 1750, 1750, 1750, 1750, 1750, 1750, 1750, 1750, 1750, 1750, 1750, 1750, 1750, 1750, 1750, 1750, 1750, 1750, 1750, 1750, 1750, 1750, 1750, 1750]","[1010, 1010, 1010, 1010, 1010, 1010, 1010, 1010, 1010, 1010, 1010, 1010, 1010, 1010, 1010, 1010, 1010, 1010, 1010, 1010, 1008, 1004, 986, 967, 948, 922, 860, 821, 780, 741, 653, 613, 573, 543, 487, 468, 444, 423, 390, 372, 357, 345, 316, 304, 292, 282, 263, 254, 245, 237, 221, 214, 207, 199, 190, 184, 182, 179, 176, 175, 172, 172, 168, 166, 165, 164, 162, 160, 159, 156, 151, 150, 148, 145, 141, 140, 137, 134, 129, 126, 125, 122, 117, 115, 114, 112, 110, 108, 108, 107, 102, 101, 100, 97, 94, 92, 90, 88, 84, 83, 81, 80, 78, 77, 77, 77, 76, 75, 75, 75, 74, 74, 73, 73, 73, 73, 73, 73, 73, 73, 73, 73, 73, 73, 73, 73, 73, 73, 73, 73, 73, 73, 73, 73, 73, 73, 73, 73, 73, 73, 73, 73, 73, 73, 73, 73, 73, 73, 73, 73, 73, 73, 73]"
"Promise","Wie oft werden Sie die Hälfte zurückgeben?","Promise","1","undefined","2","0","1","60","1080","241","10","1","680","0","legacy","[11, 21, 31, 41, 51, 61, 71, 81, 91, 101, 111, 121, 131, 141, 151, 161, 171, 181, 191, 201, 211, 221, 231, 241, 251, 261, 271, 281, 291, 301, 311, 321, 331, 341, 351, 361, 371, 381, 391, 401, 411, 421, 431, 441, 451, 461, 471, 481, 491, 501, 511, 521, 531, 541, 551, 561, 571, 581, 591, 601, 611, 621, 631, 641, 651, 661, 671]","1164","1920","[960, 960, 960, 960, 960, 960, 960, 960, 960, 960, 960, 960, 960, 960, 960, 960, 960, 957, 953, 941, 934, 920, 905, 858, 835, 797, 758, 711, 685, 664, 641, 581, 543, 507, 464, 382, 348, 320, 295, 250, 225, 207, 184, 144, 127, 120, 113, 103, 98, 93, 92, 89, 88, 88, 87, 87, 87, 87, 87, 87, 87, 87, 87, 87, 87, 87, 87]","[1010, 1010, 1010, 1010, 1010, 1010, 1010, 1010, 1010, 1010, 1010, 1010, 1010, 1010, 1010, 1010, 1010, 1008, 1006, 997, 991, 978, 965, 925, 905, 874, 840, 790, 748, 710, 669, 573, 520, 462, 409, 325, 294, 275, 262, 239, 220, 207, 187, 147, 129, 121, 115, 105, 101, 96, 94, 89, 87, 85, 85, 83, 82, 82, 82, 82, 82, 82, 82, 82, 82, 82, 82]"
"Trust","Teilnehmer A hat Ihnen 2 Punkte übermittelt.","Payback","1","undefined","3","0","1","60","1080","211","5","1","708","0","legacy","[11, 21, 31, 41, 51, 61, 71, 81, 91, 101, 111, 121, 131, 141, 151, 161, 171, 181, 191, 201, 211, 221, 231, 241, 251, 261, 271, 281, 291, 301, 311, 321, 331, 341, 351, 361, 371, 381, 391, 401, 411, 421, 431, 441, 451, 461, 471, 481, 491, 501, 511, 521, 531, 541, 551, 561, 571, 581, 591, 601, 611, 621, 631, 641, 651, 661, 671, 681, 691, 701]","1164","1920","[960, 960, 960, 960, 960, 960, 960, 960, 960, 960, 960, 960, 960, 954, 950, 942, 934, 910, 890, 855, 819, 752, 720, 681, 640, 565, 532, 499, 475, 437, 421, 407, 391, 363, 345, 328, 313, 290, 281, 270, 263, 249, 243, 237, 229, 213, 206, 199, 191, 179, 176, 172, 171, 168, 166, 164, 163, 158, 156, 154, 152, 150, 149, 149, 148, 147, 147, 146, 146, 146]","[1010, 1010, 1010, 1010, 1010, 1010, 1010, 1010, 1010, 1010, 1010, 1010, 1010, 1007, 1005, 1002, 1000, 989, 976, 958, 935, 882, 845, 797, 739, 641, 594, 549, 515, 462, 439, 417, 397, 360, 339, 319, 301, 271, 261, 247, 238, 219, 212, 203, 193, 175, 164, 157, 149, 138, 134, 130, 130, 126, 124, 122, 120, 115, 113, 110, 107, 103, 101, 99, 95, 94, 94, 93, 93, 93]"
"Trust","Teilnehmer A hat Ihnen 2 Punkte übermittelt.","Payback","1","undefined","4","0","1","60","1080","211","5","1","661","0","legacy","[11, 21, 31, 41, 51, 61, 71, 81, 91, 101, 111, 121, 131, 141, 151, 161, 171, 181, 191, 201, 211, 221, 231, 241, 251, 261, 271, 281, 291, 301, 311, 321, 331, 341, 351, 361, 371, 381, 391, 401, 411, 421, 431, 441, 451, 461, 471, 481, 491, 501, 511, 521, 531, 541, 551, 561, 571, 581, 591, 601, 611, 621, 631, 641, 651, 661]","1164","1920","[960, 960, 960, 960, 960, 960, 960, 960, 960, 960, 960, 959, 958, 955, 940, 930, 915, 902, 864, 831, 787, 751, 688, 659, 629, 595, 533, 502, 475, 448, 399, 383, 365, 347, 315, 302, 290, 277, 258, 251, 242, 233, 213, 207, 201, 197, 185, 179, 172, 168, 155, 153, 147, 146, 144, 144, 144, 144, 144, 144, 144, 144, 144, 144, 144, 144]","[1010, 1010, 1010, 1010, 1010, 1010, 1010, 1010, 1010, 1010, 1011, 1011, 1011, 1011, 1003, 997, 990, 982, 961, 942, 917, 890, 838, 815, 783, 743, 646, 592, 540, 488, 406, 371, 344, 318, 276, 258, 243, 230, 208, 199, 187, 177, 151, 144, 134, 128, 116, 110, 105, 101, 93, 91, 88, 86, 85, 85, 85, 85, 85, 85, 85, 85, 85, 85, 85, 85]"
"Trust","Teilnehmer A hat Ihnen 2 Punkte übermittelt.","Payback","0","undefined","5","0","1","60","1080","251","10","2","1101","0","legacy","[11, 21, 31, 41, 51, 61, 71, 81, 91, 101, 111, 121, 131, 141, 151, 161, 171, 181, 191, 201, 211, 221, 231, 241, 251, 261, 271, 281, 291, 301, 311, 321, 331, 341, 351, 361, 371, 381, 391, 401, 411, 421, 431, 441, 451, 461, 471, 481, 491, 501, 511, 521, 531, 541, 551, 561, 571, 581, 591, 601, 611, 621, 631, 641, 651, 661, 671, 681, 691, 701, 711, 721, 731, 741, 751, 761, 771, 781, 791, 801, 811, 821, 831, 841, 851, 861, 871, 881, 891, 901, 911, 921, 931, 941, 951, 961, 971, 981, 991, 1001, 1011, 1021, 1031, 1041, 1051, 1061, 1071, 1081, 1091, 1101]","1164","1920","[960, 960, 960, 960, 960, 960, 960, 960, 960, 960, 960, 960, 960, 960, 960, 960, 960, 960, 960, 962, 965, 971, 983, 995, 1012, 1034, 1095, 1135, 1175, 1216, 1306, 1347, 1384, 1422, 1477, 1495, 1517, 1526, 1544, 1550, 1557, 1560, 1570, 1572, 1576, 1578, 1586, 1588, 1591, 1593, 1602, 1604, 1607, 1610, 1615, 1619, 1623, 1625, 1629, 1631, 1633, 1634, 1634, 1634, 1634, 1634, 1634, 1634, 1634, 1635, 1637, 1637, 1637, 1637, 1638, 1638, 1639, 1639, 1640, 1642, 1642, 1643, 1645, 1646, 1647, 1648, 1650, 1650, 1650, 1652, 1652, 1654, 1656, 1656, 1660, 1661, 1664, 1665, 1666, 1668, 1668, 1668, 1668, 1668, 1669, 1669, 1669, 1669, 1669, 1669]","[1010, 1010, 1010, 1010, 1010, 1010, 1010, 1010, 1010, 1010, 1010, 1010, 1010, 1010, 1010, 1010, 1010, 1010, 1004, 1000, 995, 986, 967, 950, 931, 901, 829, 784, 743, 702, 613, 569, 534, 500, 450, 427, 404, 390, 364, 352, 343, 333, 316, 309, 301, 295, 281, 275, 267, 260, 242, 234, 228, 218, 204, 196, 188, 181, 166, 160, 153, 149, 141, 138, 135, 131, 126, 123, 120, 118, 114, 113, 112, 110, 108, 107, 106, 106, 104, 103, 103, 102, 99, 98, 97, 96, 95, 94, 94, 93, 92, 92, 91, 91, 89, 88, 87, 87, 86, 85, 84, 84, 84, 84, 84, 84, 84, 84, 84, 84]"
"Promise","Wie oft werden Sie die Hälfte zurückgeben?","Promise","1","undefined","5","0","2","60","1080","291","10","1","880","0","legacy","[11, 21, 31, 41, 51, 61, 71, 81, 91, 101, 111, 121, 131, 141, 151, 161, 171, 181, 191, 201, 211, 221, 231, 241, 251, 261, 271, 281, 291, 301, 311, 321, 331, 341, 351, 361, 371, 381, 391, 401, 411, 421, 431, 441, 451, 461, 471, 481, 491, 501, 511, 521, 531, 541, 551, 561, 571, 581, 591, 601, 611, 621, 631, 641, 651, 661, 671, 681, 691, 701, 711, 721, 731, 741, 751, 761, 771, 781, 791, 801, 811, 821, 831, 841, 851, 861, 871]","1164","1920","[960, 960, 960, 960, 960, 960, 960, 960, 960, 959, 959, 959, 959, 959, 959, 957, 955, 954, 951, 944, 941, 935, 928, 911, 904, 898, 891, 881, 874, 866, 858, 833, 817, 799, 778, 723, 697, 672, 651, 615, 598, 581, 562, 530, 519, 501, 486, 450, 430, 416, 397, 362, 339, 323, 309, 295, 289, 284, 276, 262, 256, 250, 245, 235, 231, 229, 227, 225, 222, 221, 221, 216, 214, 210, 209, 205, 202, 202, 201, 199, 199, 199, 199, 199, 199, 199, 199]","[1010, 1010, 1010, 1010, 1010, 1010, 1010, 1010, 1010, 1011, 1011, 1011, 1011, 1011, 1011, 1011, 1011, 1011, 1011, 1008, 1007, 1004, 1000, 989, 984, 977, 971, 949, 939, 926, 914, 882, 859, 834, 808, 742, 711, 680, 654, 608, 589, 569, 550, 518, 505, 493, 472, 426, 403, 381, 358, 314, 288, 265, 250, 231, 222, 215, 204, 185, 176, 169, 160, 145, 138, 133, 129, 122, 118, 115, 115, 111, 109, 105, 103, 98, 95, 95, 93, 92, 92, 92, 92, 92, 92, 92, 92]"
"Trust","Teilnehmer A hat Ihnen 2 Punkte übermittelt.","Payback","1","undefined","6","0","2","60","1080","271","5","1","885","0","legacy","[11, 21, 31, 41, 51, 61, 71, 81, 91, 101, 111, 121, 131, 141, 151, 161, 171, 181, 191, 201, 211, 221, 231, 241, 251, 261, 271, 281, 291, 301, 311, 321, 331, 341, 351, 361, 371, 381, 391, 401, 411, 421, 431, 441, 451, 461, 471, 481, 491, 501, 511, 521, 531, 541, 551, 561, 571, 581, 591, 601, 611, 621, 631, 641, 651, 661, 671, 681, 691, 701, 711, 721, 731, 741, 751, 761, 771, 781, 791, 801, 811, 821, 831, 841, 851, 861, 871, 881]","1164","1920","[960, 960, 960, 960, 960, 960, 960, 961, 961, 961, 961, 961, 961, 961, 961, 961, 960, 957, 953, 949, 947, 943, 933, 927, 923, 916, 892, 874, 847, 824, 756, 716, 675, 640, 592, 579, 563, 551, 531, 523, 515, 508, 492, 484, 472, 460, 439, 430, 422, 413, 395, 388, 379, 370, 349, 336, 322, 313, 291, 280, 264, 253, 229, 218, 210, 199, 184, 177, 172, 168, 159, 156, 152, 149, 145, 144, 142, 140, 139, 139, 139, 139, 139, 139, 139, 139, 139, 139]","[1010, 1010, 1010, 1010, 1010, 1010, 1010, 1011, 1011, 1011, 1011, 1011, 1011, 1011, 1011, 1011, 1011, 1011, 1007, 1003, 1001, 998, 985, 978, 969, 959, 923, 886, 839, 796, 704, 656, 612, 575, 531, 518, 502, 487, 464, 455, 448, 440, 422, 414, 404, 392, 377, 371, 364, 357, 342, 335, 329, 320, 302, 294, 285, 277, 261, 254, 242, 234, 216, 207, 199, 190, 172, 165, 158, 152, 141, 137, 131, 126, 117, 114, 111, 109, 107, 107, 107, 107, 107, 107, 107, 107, 107, 107]"
"NoTrust","Teilnehmer A hat Ihnen keine 2 Punkte übermittelt.","Payback","1","undefined","7","0","2","60","1080","271","0","1","885","0","legacy","[11, 21, 31, 41, 51, 61, 71, 81, 91, 101, 111, 121, 131, 141, 151, 161, 171, 181, 191, 201, 211, 221, 231, 241, 251, 261, 271, 281, 291, 301, 311, 321, 331, 341, 351, 361, 371, 381, 391, 401, 411, 421, 431, 441, 451, 461, 471, 481, 491, 501, 511, 521, 531, 541, 551, 561, 571, 581, 591, 601, 611, 621, 631, 641, 651, 661, 671, 681, 691, 701, 711, 721, 731, 741, 751, 761, 771, 781, 791, 801, 811, 821, 831, 841, 851, 861, 871, 881]","1164","1920","[960, 960, 960, 960, 960, 960, 960, 961, 961, 961, 961, 961, 961, 961, 961, 961, 960, 957, 953, 949, 947, 943, 933, 927, 923, 916, 892, 874, 847, 824, 756, 716, 675, 640, 592, 579, 563, 551, 531, 523, 515, 508, 492, 484, 472, 460, 439, 430, 422, 413, 395, 388, 379, 370, 349, 336, 322, 313, 291, 280, 264, 253, 229, 218, 210, 199, 184, 177, 172, 168, 159, 156, 152, 149, 145, 144, 142, 140, 139, 139, 139, 139, 139, 139, 139, 139, 139, 139]","[1010, 1010, 1010, 1010, 1010, 1010, 1010, 1011, 1011, 1011, 1011, 1011, 1011, 1011, 1011, 1011, 1011, 1011, 1007, 1003, 1001, 998, 985, 978, 969, 959, 923, 886, 839, 796, 704, 656, 612, 575, 531, 518, 502, 487, 464, 455, 448, 440, 422, 414, 404, 392, 377, 371, 364, 357, 342, 335, 329, 320, 302, 294, 285, 277, 261, 254, 242, 234, 216, 207, 199, 190, 172, 165, 158, 152, 141, 137, 131, 126, 117, 114, 111, 109, 107, 107, 107, 107, 107, 107, 107, 107, 107, 107]"
"Trust","Teilnehmer A hat Ihnen 2 Punkte übermittelt.","Payback","0","undefined","8","0","2","60","1080","221","10","2","796","0","legacy","[11, 21, 31, 41, 51, 61, 71, 81, 91, 101, 111, 121, 131, 141, 151, 161, 171, 181, 191, 201, 211, 221, 231, 241, 251, 261, 271, 281, 291, 301, 311, 321, 331, 341, 351, 361, 371, 381, 391, 401, 411, 421, 431, 441, 451, 461, 471, 481, 491, 501, 511, 521, 531, 541, 551, 561, 571, 581, 591, 601, 611, 621, 631, 641, 651, 661, 671, 681, 691, 701, 711, 721, 731, 741, 751, 761, 771, 781, 791]","1164","1920","[960, 960, 960, 960, 960, 960, 960, 960, 960, 960, 960, 960, 960, 960, 960, 960, 961, 970, 979, 989, 1003, 1044, 1077, 1111, 1151, 1241, 1283, 1331, 1377, 1479, 1536, 1592, 1641, 1725, 1759, 1788, 1813, 1840, 1847, 1853, 1857, 1864, 1866, 1868, 1869, 1874, 1876, 1878, 1878, 1878, 1878, 1878, 1878, 1878, 1877, 1876, 1873, 1870, 1869, 1867, 1866, 1862, 1860, 1859, 1856, 1846, 1840, 1833, 1831, 1827, 1827, 1827, 1827, 1827, 1827, 1827, 1827, 1827, 1827]","[1010, 1010, 1010, 1010, 1010, 1010, 1010, 1010, 1010, 1010, 1010, 1010, 1010, 1010, 1010, 1010, 1010, 999, 992, 984, 971, 938, 914, 888, 856, 789, 752, 710, 669, 580, 530, 482, 433, 349, 309, 270, 236, 190, 172, 157, 144, 127, 119, 112, 104, 91, 83, 77, 73, 64, 61, 61, 59, 56, 53, 51, 49, 46, 46, 45, 45, 45, 45, 45, 46, 51, 53, 55, 55, 56, 56, 56, 56, 56, 56, 56, 56, 56, 56]"
"Promise","Wie oft werden Sie die Hälfte zurückgeben?","Promise","0","undefined","8","0","3","60","1080","281","10","2","1616","0","legacy","[11, 21, 31, 41, 51, 61, 71, 81, 91, 101, 111, 121, 131, 141, 151, 161, 171, 181, 191, 201, 211, 221, 231, 241, 251, 261, 271, 281, 291, 301, 311, 321, 331, 341, 351, 361, 371, 381, 391, 401, 411, 421, 431, 441, 451, 461, 471, 481, 491, 501, 511, 521, 531, 541, 551, 561, 571, 581, 591, 601, 611, 621, 631, 641, 651, 661, 671, 681, 691, 701, 711, 721, 731, 741, 751, 761, 771, 781, 791, 801, 811, 821, 831, 841, 851, 861, 871, 881, 891, 901, 911, 921, 931, 941, 951, 961, 971, 981, 991, 1001, 1011, 1021, 1031, 1041, 1051, 1061, 1071, 1081, 1091, 1101, 1111, 1121, 1131, 1141, 1151, 1161, 1171, 1181, 1191, 1201, 1211, 1221, 1231, 1241, 1251, 1261, 1271, 1281, 1291, 1301, 1311, 1321, 1331, 1341, 1351, 1361, 1371, 1381, 1391, 1401, 1411, 1421, 1431, 1441, 1451, 1461, 1471, 1481, 1491, 1501, 1511, 1521, 1531, 1541, 1551, 1561, 1571, 1581, 1591, 1601, 1611]","1164","1920","[960, 960, 960, 960, 960, 960, 960, 960, 960, 960, 960, 960, 960, 960, 960, 959, 957, 956, 953, 944, 937, 927, 918, 901, 894, 889, 882, 868, 861, 849, 835, 800, 787, 776, 760, 738, 725, 715, 705, 684, 672, 660, 648, 626, 610, 599, 587, 569, 564, 559, 553, 542, 535, 529, 524, 514, 511, 508, 506, 498, 494, 489, 482, 470, 464, 453, 445, 424, 414, 400, 390, 362, 352, 338, 322, 293, 282, 273, 264, 252, 247, 244, 239, 230, 229, 226, 225, 224, 222, 222, 221, 221, 221, 221, 221, 221, 221, 221, 221, 221, 221, 221, 221, 229, 240, 255, 280, 366, 424, 482, 549, 696, 771, 854, 934, 1073, 1141, 1203, 1261, 1377, 1428, 1477, 1523, 1586, 1605, 1629, 1648, 1677, 1686, 1697, 1704, 1713, 1716, 1718, 1719, 1720, 1720, 1720, 1720, 1720, 1720, 1720, 1720, 1722, 1722, 1722, 1722, 1722, 1722, 1722, 1722, 1722, 1722, 1722, 1722, 1722, 1722, 1722, 1722, 1722, 1722]","[1010, 1010, 1010, 1010, 1010, 1010, 1010, 1010, 1010, 1010, 1010, 1010, 1010, 1010, 1010, 1011, 1011, 1009, 1007, 1001, 997, 991, 986, 977, 972, 967, 959, 939, 928, 910, 888, 842, 823, 808, 786, 754, 737, 727, 716, 698, 687, 677, 668, 653, 641, 633, 625, 608, 601, 593, 583, 562, 550, 541, 531, 513, 505, 499, 493, 479, 471, 465, 456, 438, 432, 420, 411, 391, 382, 371, 363, 340, 330, 316, 300, 277, 267, 259, 250, 236, 227, 223, 215, 202, 197, 192, 188, 180, 177, 174, 171, 166, 165, 162, 161, 159, 158, 158, 158, 158, 158, 157, 157, 157, 157, 157, 157, 157, 157, 157, 153, 154, 154, 154, 154, 149, 140, 132, 122, 107, 100, 92, 86, 77, 75, 70, 66, 61, 60, 59, 58, 55, 55, 54, 54, 52, 52, 52, 52, 52, 52, 52, 52, 52, 52, 52, 52, 52, 52, 52, 52, 52, 52, 52, 52, 52, 52, 52, 52, 52, 52]"
"Trust","Teilnehmer A hat Ihnen 2 Punkte übermittelt.","Payback","1","undefined","9","0","3","60","1080","301","5","1","796","0","legacy","[11, 21, 31, 41, 51, 61, 71, 81, 91, 101, 111, 121, 131, 141, 151, 161, 171, 181, 191, 201, 211, 221, 231, 241, 251, 261, 271, 281, 291, 301, 311, 321, 331, 341, 351, 361, 371, 381, 391, 401, 411, 421, 431, 441, 451, 461, 471, 481, 491, 501, 511, 521, 531, 541, 551, 561, 571, 581, 591, 601, 611, 621, 631, 641, 651, 661, 671, 681, 691, 701, 711, 721, 731, 741, 751, 761, 771, 781, 791]","1164","1920","[960, 960, 960, 960, 960, 960, 960, 960, 960, 960, 960, 960, 960, 960, 960, 960, 960, 960, 960, 958, 957, 950, 946, 940, 936, 914, 898, 873, 856, 825, 812, 792, 774, 725, 695, 662, 629, 582, 559, 541, 524, 484, 464, 443, 420, 394, 385, 375, 367, 344, 333, 322, 314, 296, 288, 281, 275, 256, 243, 234, 225, 210, 205, 202, 195, 185, 180, 174, 170, 166, 164, 162, 161, 161, 161, 159, 159, 159, 159]","[1010, 1010, 1010, 1010, 1010, 1010, 1010, 1010, 1010, 1010, 1010, 1010, 1010, 1010, 1010, 1010, 1010, 1010, 1010, 1011, 1011, 1006, 1004, 1001, 998, 985, 972, 957, 944, 914, 896, 873, 845, 785, 743, 709, 674, 611, 583, 560, 535, 488, 465, 445, 427, 403, 392, 377, 365, 335, 318, 303, 293, 266, 255, 246, 236, 214, 200, 189, 177, 161, 157, 153, 147, 134, 128, 119, 116, 109, 105, 103, 102, 100, 100, 98, 98, 98, 98]"
"Trust","Teilnehmer A hat Ihnen 2 Punkte übermittelt.","Payback","1","undefined","10","0","3","60","1080","321","5","1","773","0","legacy","[11, 21, 31, 41, 51, 61, 71, 81, 91, 101, 111, 121, 131, 141, 151, 161, 171, 181, 191, 201, 211, 221, 231, 241, 251, 261, 271, 281, 291, 301, 311, 321, 331, 341, 351, 361, 371, 381, 391, 401, 411, 421, 431, 441, 451, 461, 471, 481, 491, 501, 511, 521, 531, 541, 551, 561, 571, 581, 591, 601, 611, 621, 631, 641, 651, 661, 671, 681, 691, 701, 711, 721, 731, 741, 751, 761, 771]","1164","1920","[960, 960, 960, 960, 960, 960, 960, 960, 960, 960, 960, 960, 960, 960, 959, 959, 957, 957, 955, 954, 952, 951, 946, 942, 938, 933, 924, 921, 916, 909, 899, 891, 886, 877, 842, 820, 800, 787, 757, 742, 723, 700, 656, 632, 611, 587, 537, 511, 482, 458, 410, 385, 364, 342, 306, 292, 280, 268, 250, 242, 231, 223, 209, 202, 197, 195, 191, 190, 190, 190, 190, 190, 190, 190, 190, 190, 190]","[1010, 1010, 1010, 1010, 1010, 1010, 1010, 1010, 1010, 1010, 1010, 1010, 1010, 1010, 1010, 1010, 1010, 1009, 1007, 1006, 1005, 1004, 1000, 997, 994, 990, 983, 979, 973, 965, 950, 939, 929, 915, 865, 834, 811, 793, 762, 746, 730, 709, 670, 648, 629, 609, 560, 528, 494, 458, 381, 347, 316, 288, 233, 210, 191, 174, 144, 133, 119, 110, 95, 87, 79, 77, 71, 71, 71, 71, 71, 71, 71, 71, 71, 71, 71]"
"Trust","Teilnehmer A hat Ihnen 2 Punkte übermittelt.","Payback","0","undefined","11","0","3","60","1080","271","10","2","917","0","legacy","[11, 21, 31, 41, 51, 61, 71, 81, 91, 101, 111, 121, 131, 141, 151, 161, 171, 181, 191, 201, 211, 221, 231, 241, 251, 261, 271, 281, 291, 301, 311, 321, 331, 341, 351, 361, 371, 381, 391, 401, 411, 421, 431, 441, 451, 461, 471, 481, 491, 501, 511, 521, 531, 541, 551, 561, 571, 581, 591, 601, 611, 621, 631, 641, 651, 661, 671, 681, 691, 701, 711, 721, 731, 741, 751, 761, 771, 781, 791, 801, 811, 821, 831, 841, 851, 861, 871, 881, 891, 901, 911]","1164","1920","[960, 960, 960, 960, 960, 960, 960, 960, 960, 960, 960, 960, 960, 960, 960, 959, 959, 959, 959, 959, 959, 962, 973, 980, 989, 995, 1013, 1022, 1032, 1052, 1103, 1130, 1159, 1183, 1234, 1256, 1282, 1304, 1348, 1364, 1384, 1397, 1427, 1442, 1453, 1463, 1478, 1484, 1489, 1495, 1505, 1512, 1517, 1524, 1538, 1545, 1552, 1557, 1568, 1575, 1580, 1588, 1600, 1607, 1612, 1618, 1634, 1641, 1650, 1657, 1667, 1673, 1677, 1680, 1684, 1686, 1689, 1689, 1691, 1692, 1693, 1693, 1693, 1693, 1693, 1693, 1693, 1693, 1693, 1693, 1693]","[1010, 1010, 1010, 1010, 1010, 1010, 1010, 1010, 1010, 1010, 1010, 1010, 1010, 1010, 1010, 1011, 1011, 1011, 1010, 1008, 1005, 1000, 986, 977, 968, 959, 936, 922, 908, 884, 833, 806, 781, 752, 701, 675, 646, 620, 565, 545, 519, 502, 467, 449, 432, 420, 396, 385, 375, 366, 350, 338, 331, 322, 301, 291, 282, 272, 255, 246, 238, 229, 213, 205, 198, 190, 172, 166, 157, 150, 140, 134, 129, 123, 115, 111, 107, 104, 102, 100, 100, 100, 100, 100, 100, 100, 100, 100, 100, 100, 100]"
"Promise","Wie oft werden Sie die Hälfte zurückgeben?","Promise","0","undefined","11","0","4","60","1080","291","10","2","1079","0","legacy","[11, 21, 31, 41, 51, 61, 71, 81, 91, 101, 111, 121, 131, 141, 151, 161, 171, 181, 191, 201, 211, 221, 231, 241, 251, 261, 271, 281, 291, 301, 311, 321, 331, 341, 351, 361, 371, 381, 391, 401, 411, 421, 431, 441, 451, 461, 471, 481, 491, 501, 511, 521, 531, 541, 551, 561, 571, 581, 591, 601, 611, 621, 631, 641, 651, 661, 671, 681, 691, 701, 711, 721, 731, 741, 751, 761, 771, 781, 791, 801, 811, 821, 831, 841, 851, 861, 871, 881, 891, 901, 911, 921, 931, 941, 951, 961, 971, 981, 991, 1001, 1011, 1021, 1031, 1041, 1051, 1061, 1071]","1164","1920","[960, 960, 960, 960, 960, 960, 960, 960, 960, 960, 960, 960, 960, 960, 960, 960, 960, 960, 960, 960, 960, 963, 965, 975, 981, 987, 992, 1008, 1021, 1033, 1052, 1080, 1097, 1116, 1134, 1169, 1189, 1204, 1222, 1256, 1273, 1291, 1308, 1340, 1359, 1372, 1385, 1410, 1418, 1426, 1433, 1446, 1453, 1458, 1463, 1474, 1479, 1484, 1489, 1497, 1502, 1506, 1510, 1520, 1524, 1532, 1536, 1546, 1550, 1554, 1559, 1572, 1577, 1586, 1594, 1609, 1619, 1627, 1635, 1647, 1653, 1657, 1662, 1669, 1671, 1673, 1676, 1679, 1681, 1682, 1683, 1684, 1685, 1685, 1685, 1685, 1685, 1685, 1685, 1685, 1685, 1685, 1685, 1685, 1685, 1685, 1685]","[1010, 1010, 1010, 1010, 1010, 1010, 1010, 1010, 1010, 1010, 1010, 1010, 1010, 1010, 1010, 1010, 1010, 1010, 1010, 1010, 1010, 1008, 1003, 992, 984, 977, 968, 948, 935, 923, 902, 867, 846, 827, 809, 770, 751, 733, 710, 671, 646, 623, 598, 555, 527, 508, 486, 454, 442, 433, 423, 405, 396, 389, 383, 370, 364, 356, 350, 337, 329, 323, 314, 298, 290, 282, 277, 263, 258, 253, 247, 230, 224, 216, 209, 195, 188, 180, 173, 161, 153, 148, 141, 128, 124, 118, 112, 105, 101, 97, 94, 90, 88, 87, 86, 86, 85, 85, 85, 85, 85, 85, 85, 85, 85, 85, 85]"
"Trust","Teilnehmer A hat Ihnen 2 Punkte übermittelt.","Payback","1","undefined","12","0","4","60","1080","261","5","1","772","0","legacy","[11, 21, 31, 41, 51, 61, 71, 81, 91, 101, 111, 121, 131, 141, 151, 161, 171, 181, 191, 201, 211, 221, 231, 241, 251, 261, 271, 281, 291, 301, 311, 321, 331, 341, 351, 361, 371, 381, 391, 401, 411, 421, 431, 441, 451, 461, 471, 481, 491, 501, 511, 521, 531, 541, 551, 561, 571, 581, 591, 601, 611, 621, 631, 641, 651, 661, 671, 681, 691, 701, 711, 721, 731, 741, 751, 761, 771]","1164","1920","[960, 960, 960, 960, 960, 960, 960, 960, 960, 960, 960, 960, 960, 959, 959, 957, 954, 945, 937, 929, 918, 890, 869, 845, 822, 793, 779, 764, 743, 700, 682, 662, 644, 624, 616, 608, 603, 584, 576, 569, 562, 547, 540, 525, 513, 477, 453, 429, 402, 353, 332, 310, 293, 254, 230, 212, 194, 159, 145, 127, 115, 95, 89, 85, 84, 82, 82, 82, 82, 82, 82, 82, 82, 82, 82, 82, 82]","[1010, 1010, 1010, 1010, 1010, 1010, 1010, 1010, 1010, 1010, 1010, 1010, 1010, 1010, 1010, 1010, 1008, 1003, 999, 994, 988, 975, 966, 953, 944, 925, 907, 885, 854, 797, 772, 744, 719, 684, 669, 653, 641, 609, 593, 580, 570, 547, 534, 516, 494, 455, 431, 407, 380, 332, 311, 287, 269, 233, 209, 190, 169, 134, 117, 96, 85, 65, 59, 53, 50, 43, 41, 40, 40, 40, 40, 40, 40, 40, 40, 40, 40]"
"Trust","Teilnehmer A hat Ihnen 2 Punkte übermittelt.","Payback","1","undefined","13","0","4","60","1080","221","5","1","780","0","legacy","[11, 21, 31, 41, 51, 61, 71, 81, 91, 101, 111, 121, 131, 141, 151, 161, 171, 181, 191, 201, 211, 221, 231, 241, 251, 261, 271, 281, 291, 301, 311, 321, 331, 341, 351, 361, 371, 381, 391, 401, 411, 421, 431, 441, 451, 461, 471, 481, 491, 501, 511, 521, 531, 541, 551, 561, 571, 581, 591, 601, 611, 621, 631, 641, 651, 661, 671, 681, 691, 701, 711, 721, 731, 741, 751, 761, 771]","1164","1920","[960, 960, 960, 960, 960, 960, 960, 960, 960, 960, 960, 958, 956, 952, 948, 942, 933, 915, 903, 888, 869, 819, 795, 769, 738, 686, 662, 638, 615, 580, 561, 538, 519, 474, 451, 432, 411, 377, 364, 350, 338, 316, 305, 301, 294, 287, 282, 277, 272, 257, 252, 246, 240, 228, 223, 219, 215, 205, 202, 197, 194, 188, 185, 181, 180, 178, 177, 175, 174, 173, 173, 173, 173, 173, 173, 173, 173]","[1010, 1010, 1010, 1010, 1010, 1010, 1010, 1010, 1010, 1010, 1010, 1010, 1010, 1008, 1006, 1003, 1001, 992, 985, 975, 965, 933, 919, 898, 874, 820, 789, 758, 729, 679, 651, 625, 597, 537, 511, 483, 457, 425, 412, 401, 393, 377, 366, 359, 350, 329, 318, 306, 296, 276, 266, 256, 244, 225, 214, 207, 199, 182, 176, 167, 162, 149, 143, 137, 131, 124, 121, 119, 117, 116, 115, 115, 115, 115, 115, 115, 115]"
"Trust","Teilnehmer A hat Ihnen 2 Punkte übermittelt.","Payback","0","undefined","14","0","4","60","1080","261","10","2","782","0","legacy","[11, 21, 31, 41, 51, 61, 71, 81, 91, 101, 111, 121, 131, 141, 151, 161, 171, 181, 191, 201, 211, 221, 231, 241, 251, 261, 271, 281, 291, 301, 311, 321, 331, 341, 351, 361, 371, 381, 391, 401, 411, 421, 431, 441, 451, 461, 471, 481, 491, 501, 511, 521, 531, 541, 551, 561, 571, 581, 591, 601, 611, 621, 631, 641, 651, 661, 671, 681, 691, 701, 711, 721, 731, 741, 751, 761, 771, 781]","1164","1920","[960, 960, 960, 960, 960, 960, 960, 960, 960, 960, 960, 960, 960, 960, 960, 960, 960, 960, 960, 962, 966, 972, 985, 992, 1000, 1009, 1034, 1053, 1076, 1107, 1165, 1195, 1228, 1263, 1337, 1363, 1393, 1422, 1467, 1485, 1503, 1517, 1544, 1553, 1562, 1572, 1582, 1585, 1588, 1590, 1595, 1600, 1605, 1608, 1616, 1621, 1624, 1628, 1639, 1643, 1645, 1649, 1659, 1661, 1666, 1670, 1676, 1679, 1681, 1683, 1687, 1687, 1687, 1687, 1687, 1687, 1687, 1687]","[1010, 1010, 1010, 1010, 1010, 1010, 1010, 1010, 1010, 1010, 1010, 1010, 1010, 1010, 1010, 1010, 1010, 1010, 1006, 1001, 996, 987, 968, 958, 946, 929, 886, 858, 829, 795, 731, 701, 666, 634, 573, 547, 519, 492, 448, 428, 405, 387, 356, 347, 334, 322, 303, 297, 290, 284, 272, 263, 254, 244, 223, 213, 203, 196, 178, 170, 165, 159, 144, 139, 132, 127, 115, 110, 106, 103, 97, 97, 96, 96, 96, 96, 96, 96]"
"Promise","Wie oft werden Sie die Hälfte zurückgeben?","Promise","0","undefined","14","0","5","60","1080","261","10","2","1112","0","legacy","[11, 21, 31, 41, 51, 61, 71, 81, 91, 101, 111, 121, 131, 141, 151, 161, 171, 181, 191, 201, 211, 221, 231, 241, 251, 261, 271, 281, 291, 301, 311, 321, 331, 341, 351, 361, 371, 381, 391, 401, 411, 421, 431, 441, 451, 461, 471, 481, 491, 501, 511, 521, 531, 541, 551, 561, 571, 581, 591, 601, 611, 621, 631, 641, 651, 661, 671, 681, 691, 701, 711, 721, 731, 741, 751, 761, 771, 781, 791, 801, 811, 821, 831, 841, 851, 861, 871, 881, 891, 901, 911, 921, 931, 941, 951, 961, 971, 981, 991, 1001, 1011, 1021, 1031, 1041, 1051, 1061, 1071, 1081, 1091, 1101, 1111]","1164","1920","[960, 960, 960, 960, 960, 960, 960, 960, 960, 960, 960, 960, 960, 960, 960, 960, 960, 960, 960, 963, 970, 979, 986, 1004, 1014, 1025, 1035, 1059, 1075, 1086, 1102, 1133, 1148, 1166, 1179, 1201, 1210, 1223, 1232, 1247, 1253, 1260, 1266, 1277, 1284, 1289, 1295, 1306, 1313, 1321, 1326, 1340, 1343, 1348, 1355, 1373, 1384, 1394, 1404, 1429, 1438, 1449, 1459, 1479, 1487, 1496, 1505, 1521, 1528, 1532, 1537, 1544, 1546, 1549, 1550, 1555, 1558, 1562, 1566, 1574, 1578, 1583, 1588, 1597, 1602, 1606, 1611, 1616, 1621, 1624, 1628, 1633, 1634, 1636, 1639, 1642, 1642, 1643, 1643, 1644, 1644, 1644, 1644, 1644, 1644, 1644, 1644, 1644, 1644, 1644, 1644]","[1010, 1010, 1010, 1010, 1011, 1011, 1011, 1011, 1011, 1011, 1011, 1011, 1011, 1011, 1011, 1011, 1011, 1011, 1011, 1004, 995, 987, 981, 959, 947, 930, 918, 884, 864, 847, 824, 784, 764, 743, 726, 696, 683, 665, 651, 627, 616, 603, 591, 568, 558, 547, 537, 518, 508, 498, 490, 471, 464, 456, 447, 425, 413, 401, 389, 357, 346, 334, 320, 296, 286, 275, 263, 245, 238, 230, 225, 216, 211, 207, 204, 196, 191, 186, 181, 173, 169, 163, 158, 148, 143, 139, 134, 128, 123, 119, 117, 112, 110, 108, 106, 103, 103, 101, 101, 100, 100, 100, 100, 100, 100, 100, 100, 100, 100, 100, 100]"
"NoTrust","Teilnehmer A hat Ihnen keine 2 Punkte übermittelt.","Payback","0","undefined","15","0","5","60","1080","261","0","2","1112","0","legacy","[11, 21, 31, 41, 51, 61, 71, 81, 91, 101, 111, 121, 131, 141, 151, 161, 171, 181, 191, 201, 211, 221, 231, 241, 251, 261, 271, 281, 291, 301, 311, 321, 331, 341, 351, 361, 371, 381, 391, 401, 411, 421, 431, 441, 451, 461, 471, 481, 491, 501, 511, 521, 531, 541, 551, 561, 571, 581, 591, 601, 611, 621, 631, 641, 651, 661, 671, 681, 691, 701, 711, 721, 731, 741, 751, 761, 771, 781, 791, 801, 811, 821, 831, 841, 851, 861, 871, 881, 891, 901, 911, 921, 931, 941, 951, 961, 971, 981, 991, 1001, 1011, 1021, 1031, 1041, 1051, 1061, 1071, 1081, 1091, 1101, 1111]","1164","1920","[960, 960, 960, 960, 960, 960, 960, 960, 960, 960, 960, 960, 960, 960, 960, 960, 960, 960, 960, 963, 970, 979, 986, 1004, 1014, 1025, 1035, 1059, 1075, 1086, 1102, 1133, 1148, 1166, 1179, 1201, 1210, 1223, 1232, 1247, 1253, 1260, 1266, 1277, 1284, 1289, 1295, 1306, 1313, 1321, 1326, 1340, 1343, 1348, 1355, 1373, 1384, 1394, 1404, 1429, 1438, 1449, 1459, 1479, 1487, 1496, 1505, 1521, 1528, 1532, 1537, 1544, 1546, 1549, 1550, 1555, 1558, 1562, 1566, 1574, 1578, 1583, 1588, 1597, 1602, 1606, 1611, 1616, 1621, 1624, 1628, 1633, 1634, 1636, 1639, 1642, 1642, 1643, 1643, 1644, 1644, 1644, 1644, 1644, 1644, 1644, 1644, 1644, 1644, 1644, 1644]","[1010, 1010, 1010, 1010, 1011, 1011, 1011, 1011, 1011, 1011, 1011, 1011, 1011, 1011, 1011, 1011, 1011, 1011, 1011, 1004, 995, 987, 981, 959, 947, 930, 918, 884, 864, 847, 824, 784, 764, 743, 726, 696, 683, 665, 651, 627, 616, 603, 591, 568, 558, 547, 537, 518, 508, 498, 490, 471, 464, 456, 447, 425, 413, 401, 389, 357, 346, 334, 320, 296, 286, 275, 263, 245, 238, 230, 225, 216, 211, 207, 204, 196, 191, 186, 181, 173, 169, 163, 158, 148, 143, 139, 134, 128, 123, 119, 117, 112, 110, 108, 106, 103, 103, 101, 101, 100, 100, 100, 100, 100, 100, 100, 100, 100, 100, 100, 100]"
"Trust","Teilnehmer A hat Ihnen 2 Punkte übermittelt.","Payback","1","undefined","16","0","5","60","1080","251","5","1","972","0","legacy","[11, 21, 31, 41, 51, 61, 71, 81, 91, 101, 111, 121, 131, 141, 151, 161, 171, 181, 191, 201, 211, 221, 231, 241, 251, 261, 271, 281, 291, 301, 311, 321, 331, 341, 351, 361, 371, 381, 391, 401, 411, 421, 431, 441, 451, 461, 471, 481, 491, 501, 511, 521, 531, 541, 551, 561, 571, 581, 591, 601, 611, 621, 631, 641, 651, 661, 671, 681, 691, 701, 711, 721, 731, 741, 751, 761, 771, 781, 791, 801, 811, 821, 831, 841, 851, 861, 871, 881, 891, 901, 911, 921, 931, 941, 951, 961, 971]","1164","1920","[960, 960, 960, 960, 960, 960, 960, 960, 960, 960, 960, 960, 960, 960, 959, 953, 948, 935, 926, 919, 907, 892, 879, 864, 846, 804, 776, 746, 715, 662, 641, 619, 596, 551, 522, 499, 473, 433, 411, 391, 372, 341, 324, 307, 287, 251, 238, 229, 219, 206, 199, 191, 184, 172, 165, 156, 151, 140, 135, 131, 129, 127, 126, 125, 125, 124, 124, 124, 124, 124, 124, 124, 124, 124, 124, 124, 124, 124, 124, 124, 124, 124, 124, 124, 124, 124, 124, 124, 124, 124, 124, 124, 124, 124, 124, 124, 124]","[1010, 1010, 1010, 1010, 1010, 1010, 1010, 1010, 1010, 1010, 1010, 1010, 1010, 1010, 1010, 1010, 1010, 1007, 1003, 999, 995, 977, 964, 944, 924, 874, 842, 803, 766, 708, 682, 656, 629, 577, 554, 534, 515, 486, 470, 454, 436, 395, 370, 343, 312, 254, 233, 219, 204, 182, 172, 161, 151, 130, 121, 112, 107, 96, 92, 88, 86, 82, 82, 80, 80, 79, 79, 79, 79, 79, 79, 79, 79, 79, 79, 79, 79, 79, 79, 79, 79, 79, 79, 79, 79, 79, 79, 79, 79, 79, 79, 79, 79, 79, 79, 79, 79]"
"Trust","Teilnehmer A hat Ihnen 2 Punkte übermittelt.","Payback","0","undefined","17","0","5","60","1080","431","10","2","1164","0","legacy","[11, 21, 31, 41, 51, 61, 71, 81, 91, 101, 111, 121, 131, 141, 151, 161, 171, 181, 191, 201, 211, 221, 231, 241, 251, 261, 271, 281, 291, 301, 311, 321, 331, 341, 351, 361, 371, 381, 391, 401, 411, 421, 431, 441, 451, 461, 471, 481, 491, 501, 511, 521, 531, 541, 551, 561, 571, 581, 591, 601, 611, 621, 631, 641, 651, 661, 671, 681, 691, 701, 711, 721, 731, 741, 751, 761, 771, 781, 791, 801, 811, 821, 831, 841, 851, 861, 871, 881, 891, 901, 911, 921, 931, 941, 951, 961, 971, 981, 991, 1001, 1011, 1021, 1031, 1041, 1051, 1061, 1071, 1081, 1091, 1101, 1111, 1121, 1131, 1141, 1151, 1161]","1164","1920","[960, 960, 960, 960, 960, 960, 960, 960, 960, 960, 960, 960, 960, 960, 960, 960, 960, 960, 960, 960, 960, 960, 960, 960, 962, 963, 963, 963, 964, 965, 966, 967, 968, 971, 971, 973, 974, 976, 977, 979, 982, 993, 1003, 1017, 1036, 1070, 1089, 1106, 1122, 1161, 1177, 1191, 1205, 1232, 1244, 1255, 1263, 1279, 1286, 1293, 1301, 1313, 1318, 1324, 1329, 1339, 1345, 1350, 1358, 1373, 1384, 1394, 1406, 1426, 1437, 1453, 1466, 1508, 1525, 1549, 1570, 1605, 1621, 1635, 1648, 1673, 1681, 1686, 1690, 1696, 1700, 1702, 1706, 1711, 1713, 1715, 1716, 1718, 1720, 1721, 1723, 1724, 1724, 1725, 1725, 1725, 1725, 1725, 1725, 1725, 1725, 1725, 1725, 1725, 1725, 1725]","[1010, 1010, 1010, 1010, 1010, 1010, 1010, 1010, 1010, 1010, 1010, 1010, 1010, 1010, 1010, 1010, 1010, 1010, 1010, 1010, 1010, 1010, 1010, 1004, 1002, 999, 998, 998, 996, 992, 991, 990, 989, 989, 987, 986, 984, 979, 977, 972, 966, 947, 934, 914, 888, 840, 815, 790, 765, 716, 693, 674, 654, 621, 606, 594, 585, 563, 552, 544, 532, 514, 507, 499, 492, 484, 477, 471, 463, 449, 440, 431, 421, 399, 386, 372, 359, 321, 306, 286, 266, 237, 223, 212, 201, 181, 172, 166, 160, 147, 141, 137, 132, 122, 118, 113, 108, 104, 101, 98, 94, 91, 89, 89, 89, 89, 89, 89, 89, 89, 89, 89, 89, 89, 89, 89]"
"Promise","Wie oft werden Sie die Hälfte zurückgeben?","Promise","0","undefined","17","0","6","60","1080","251","10","2","920","0","legacy","[11, 21, 31, 41, 51, 61, 71, 81, 91, 101, 111, 121, 131, 141, 151, 161, 171, 181, 191, 201, 211, 221, 231, 241, 251, 261, 271, 281, 291, 301, 311, 321, 331, 341, 351, 361, 371, 381, 391, 401, 411, 421, 431, 441, 451, 461, 471, 481, 491, 501, 511, 521, 531, 541, 551, 561, 571, 581, 591, 601, 611, 621, 631, 641, 651, 661, 671, 681, 691, 701, 711, 721, 731, 741, 751, 761, 771, 781, 791, 801, 811, 821, 831, 841, 851, 861, 871, 881, 891, 901, 911]","1164","1920","[960, 960, 960, 960, 960, 960, 960, 960, 960, 959, 959, 959, 958, 958, 958, 958, 958, 958, 958, 968, 973, 982, 987, 1001, 1011, 1018, 1028, 1048, 1059, 1068, 1080, 1106, 1121, 1138, 1148, 1183, 1201, 1220, 1235, 1271, 1287, 1303, 1317, 1351, 1364, 1378, 1391, 1415, 1425, 1432, 1442, 1453, 1457, 1462, 1466, 1474, 1479, 1483, 1487, 1495, 1498, 1501, 1505, 1511, 1516, 1521, 1527, 1540, 1549, 1559, 1570, 1591, 1606, 1615, 1626, 1641, 1644, 1646, 1649, 1651, 1651, 1652, 1652, 1653, 1653, 1653, 1653, 1653, 1653, 1653, 1653]","[1010, 1010, 1010, 1010, 1010, 1010, 1010, 1010, 1010, 1010, 1010, 1010, 1010, 1010, 1010, 1008, 1005, 1002, 1000, 988, 983, 973, 965, 945, 931, 918, 899, 864, 848, 827, 805, 764, 739, 712, 693, 635, 605, 577, 553, 500, 477, 454, 432, 380, 367, 347, 330, 295, 284, 275, 264, 251, 246, 241, 234, 226, 220, 217, 212, 204, 202, 199, 198, 195, 192, 190, 186, 181, 177, 172, 169, 159, 153, 149, 144, 137, 134, 132, 130, 128, 127, 126, 126, 125, 125, 125, 125, 124, 124, 124, 124]"
"Trust","Teilnehmer A hat Ihnen 2 Punkte übermittelt.","Payback","1","undefined","18","0","6","60","1080","211","5","1","717","0","legacy","[11, 21, 31, 41, 51, 61, 71, 81, 91, 101, 111, 121, 131, 141, 151, 161, 171, 181, 191, 201, 211, 221, 231, 241, 251, 261, 271, 281, 291, 301, 311, 321, 331, 341, 351, 361, 371, 381, 391, 401, 411, 421, 431, 441, 451, 461, 471, 481, 491, 501, 511, 521, 531, 541, 551, 561, 571, 581, 591, 601, 611, 621, 631, 641, 651, 661, 671, 681, 691, 701, 711]","1164","1920","[960, 960, 959, 958, 958, 956, 955, 953, 951, 949, 947, 946, 945, 943, 937, 934, 929, 923, 899, 881, 855, 830, 790, 775, 757, 738, 688, 669, 642, 617, 553, 524, 493, 465, 418, 400, 380, 364, 326, 310, 295, 279, 260, 255, 249, 242, 235, 232, 229, 227, 224, 221, 219, 214, 206, 200, 195, 191, 181, 176, 174, 172, 171, 171, 170, 168, 166, 165, 165, 165, 165]","[1010, 1010, 1011, 1011, 1011, 1011, 1011, 1011, 1011, 1011, 1010, 1009, 1008, 1007, 1001, 997, 992, 987, 967, 950, 928, 901, 854, 834, 804, 776, 704, 676, 640, 603, 532, 502, 467, 438, 396, 377, 362, 346, 316, 306, 294, 280, 256, 246, 236, 225, 210, 203, 199, 196, 190, 185, 181, 172, 156, 146, 134, 123, 102, 91, 82, 77, 70, 68, 65, 63, 58, 56, 56, 56, 56]"
"Trust","Teilnehmer A hat Ihnen 2 Punkte übermittelt.","Payback","1","undefined","19","0","6","60","1080","231","5","1","718","0","legacy","[11, 21, 31, 41, 51, 61, 71, 81, 91, 101, 111, 121, 131, 141, 151, 161, 171, 181, 191, 201, 211, 221, 231, 241, 251, 261, 271, 281, 291, 301, 311, 321, 331, 341, 351, 361, 371, 381, 391, 401, 411, 421, 431, 441, 451, 461, 471, 481, 491, 501, 511, 521, 531, 541, 551, 561, 571, 581, 591, 601, 611, 621, 631, 641, 651, 661, 671, 681, 691, 701, 711]","1164","1920","[960, 960, 960, 960, 960, 960, 960, 960, 960, 960, 960, 960, 960, 960, 960, 960, 959, 953, 937, 924, 911, 890, 850, 829, 797, 765, 703, 673, 646, 617, 560, 533, 510, 488, 452, 436, 423, 407, 379, 371, 363, 355, 344, 341, 337, 336, 331, 329, 326, 325, 315, 308, 297, 290, 269, 260, 251, 243, 228, 221, 214, 209, 201, 200, 197, 197, 197, 197, 197, 197, 197]","[1010, 1010, 1010, 1010, 1010, 1010, 1010, 1010, 1010, 1010, 1010, 1010, 1010, 1010, 1010, 1010, 1010, 1010, 999, 990, 979, 960, 914, 884, 841, 802, 718, 679, 640, 600, 534, 507, 481, 457, 416, 396, 376, 356, 321, 311, 302, 290, 276, 270, 264, 255, 231, 220, 209, 198, 175, 162, 145, 135, 115, 107, 101, 95, 86, 83, 77, 76, 73, 73, 72, 72, 72, 72, 72, 72, 72]"
"Trust","Teilnehmer A hat Ihnen 2 Punkte übermittelt.","Payback","0","undefined","20","0","6","60","1080","291","10","2","1324","0","legacy","[11, 21, 31, 41, 51, 61, 71, 81, 91, 101, 111, 121, 131, 141, 151, 161, 171, 181, 191, 201, 211, 221, 231, 241, 251, 261, 271, 281, 291, 301, 311, 321, 331, 341, 351, 361, 371, 381, 391, 401, 411, 421, 431, 441, 451, 461, 471, 481, 491, 501, 511, 521, 531, 541, 551, 561, 571, 581, 591, 601, 611, 621, 631, 641, 651, 661, 671, 681, 691, 701, 711, 721, 731, 741, 751, 761, 771, 781, 791, 801, 811, 821, 831, 841, 851, 861, 871, 881, 891, 901, 911, 921, 931, 941, 951, 961, 971, 981, 991, 1001, 1011, 1021, 1031, 1041, 1051, 1061, 1071, 1081, 1091, 1101, 1111, 1121, 1131, 1141, 1151, 1161, 1171, 1181, 1191, 1201, 1211, 1221, 1231, 1241, 1251, 1261, 1271, 1281, 1291, 1301, 1311, 1321]","1164","1920","[960, 960, 960, 960, 960, 960, 960, 960, 960, 960, 960, 960, 960, 960, 960, 960, 960, 960, 960, 960, 960, 960, 960, 960, 960, 960, 961, 961, 961, 964, 966, 967, 968, 969, 969, 969, 969, 971, 971, 972, 974, 975, 976, 977, 979, 988, 995, 1002, 1013, 1043, 1062, 1079, 1098, 1131, 1146, 1162, 1181, 1214, 1233, 1256, 1271, 1314, 1334, 1346, 1355, 1371, 1377, 1385, 1391, 1401, 1404, 1408, 1413, 1417, 1419, 1422, 1425, 1434, 1438, 1442, 1444, 1452, 1454, 1457, 1460, 1464, 1467, 1468, 1470, 1475, 1477, 1479, 1481, 1488, 1492, 1498, 1502, 1518, 1524, 1530, 1539, 1558, 1569, 1578, 1585, 1607, 1618, 1628, 1640, 1659, 1665, 1671, 1677, 1689, 1694, 1697, 1701, 1707, 1711, 1712, 1714, 1716, 1717, 1717, 1717, 1718, 1718, 1719, 1719, 1719, 1719, 1719]","[1010, 1010, 1010, 1010, 1010, 1010, 1010, 1010, 1010, 1010, 1010, 1010, 1010, 1009, 1008, 1008, 1006, 1001, 998, 995, 993, 983, 978, 971, 967, 957, 950, 944, 937, 922, 913, 908, 901, 888, 883, 876, 871, 868, 867, 866, 863, 859, 857, 854, 850, 838, 830, 820, 806, 771, 750, 729, 711, 670, 652, 634, 615, 579, 560, 542, 528, 498, 483, 473, 464, 444, 436, 426, 418, 403, 399, 391, 385, 374, 370, 365, 359, 345, 339, 332, 327, 313, 310, 304, 299, 291, 287, 285, 281, 274, 273, 269, 266, 258, 255, 252, 249, 238, 234, 230, 226, 215, 209, 204, 200, 188, 181, 175, 168, 157, 153, 150, 146, 138, 134, 132, 130, 124, 121, 119, 117, 113, 112, 111, 111, 109, 109, 109, 109, 109, 109, 109]"
"Promise","Wie oft werden Sie die Hälfte zurückgeben?","Promise","0","undefined","20","0","7","60","1080","561","10","2","1193","0","legacy","[11, 21, 31, 41, 51, 61, 71, 81, 91, 101, 111, 121, 131, 141, 151, 161, 171, 181, 191, 201, 211, 221, 231, 241, 251, 261, 271, 281, 291, 301, 311, 321, 331, 341, 351, 361, 371, 381, 391, 401, 411, 421, 431, 441, 451, 461, 471, 481, 491, 501, 511, 521, 531, 541, 551, 561, 571, 581, 591, 601, 611, 621, 631, 641, 651, 661, 671, 681, 691, 701, 711, 721, 731, 741, 751, 761, 771, 781, 791, 801, 811, 821, 831, 841, 851, 861, 871, 881, 891, 901, 911, 921, 931, 941, 951, 961, 971, 981, 991, 1001, 1011, 1021, 1031, 1041, 1051, 1061, 1071, 1081, 1091, 1101, 1111, 1121, 1131, 1141, 1151, 1161, 1171, 1181, 1191]","1164","1920","[960, 960, 960, 960, 960, 960, 960, 960, 960, 960, 960, 960, 960, 960, 960, 960, 960, 960, 960, 960, 960, 960, 960, 960, 960, 960, 960, 960, 960, 960, 960, 960, 960, 960, 960, 958, 955, 955, 954, 951, 951, 951, 951, 951, 951, 951, 951, 952, 952, 952, 952, 955, 956, 959, 962, 972, 977, 985, 995, 1021, 1036, 1048, 1063, 1093, 1108, 1128, 1140, 1172, 1192, 1208, 1224, 1260, 1275, 1292, 1306, 1336, 1348, 1357, 1367, 1395, 1410, 1424, 1434, 1459, 1471, 1482, 1492, 1518, 1526, 1534, 1543, 1549, 1558, 1563, 1568, 1571, 1584, 1589, 1593, 1597, 1609, 1614, 1622, 1628, 1638, 1642, 1647, 1652, 1659, 1662, 1664, 1665, 1668, 1668, 1668, 1668, 1668, 1668, 1668]","[1010, 1010, 1010, 1010, 1010, 1010, 1010, 1010, 1010, 1010, 1010, 1010, 1010, 1010, 1010, 1010, 1010, 1010, 1010, 1010, 1010, 1010, 1010, 1010, 1010, 1010, 1010, 1010, 1010, 1010, 1010, 1010, 1008, 1007, 1003, 994, 990, 987, 984, 977, 974, 970, 969, 967, 967, 966, 966, 963, 961, 961, 959, 955, 950, 945, 942, 924, 914, 903, 889, 855, 837, 818, 797, 762, 742, 718, 702, 654, 626, 603, 581, 535, 515, 496, 481, 445, 431, 417, 406, 373, 355, 339, 327, 299, 284, 274, 262, 238, 229, 220, 211, 204, 193, 187, 182, 178, 168, 163, 158, 153, 144, 140, 134, 131, 123, 121, 118, 114, 109, 107, 105, 104, 102, 102, 102, 102, 102, 102, 102]"
"Trust","Teilnehmer A hat Ihnen 2 Punkte übermittelt.","Payback","1","undefined","21","0","7","60","1080","311","5","1","1197","0","legacy","[11, 21, 31, 41, 51, 61, 71, 81, 91, 101, 111, 121, 131, 141, 151, 161, 171, 181, 191, 201, 211, 221, 231, 241, 251, 261, 271, 281, 291, 301, 311, 321, 331, 341, 351, 361, 371, 381, 391, 401, 411, 421, 431, 441, 451, 461, 471, 481, 491, 501, 511, 521, 531, 541, 551, 561, 571, 581, 591, 601, 611, 621, 631, 641, 651, 661, 671, 681, 691, 701, 711, 721, 731, 741, 751, 761, 771, 781, 791, 801, 811, 821, 831, 841, 851, 861, 871, 881, 891, 901, 911, 921, 931, 941, 951, 961, 971, 981, 991, 1001, 1011, 1021, 1031, 1041, 1051, 1061, 1071, 1081, 1091, 1101, 1111, 1121, 1131, 1141, 1151, 1161, 1171, 1181, 1191]","1164","1920","[960, 960, 960, 960, 960, 960, 960, 960, 960, 960, 960, 960, 960, 960, 960, 959, 957, 953, 948, 944, 940, 930, 925, 920, 917, 905, 901, 898, 894, 883, 872, 866, 856, 839, 833, 825, 819, 805, 799, 793, 787, 774, 769, 762, 754, 738, 730, 724, 718, 703, 696, 689, 681, 664, 655, 645, 634, 610, 597, 588, 574, 548, 534, 521, 500, 469, 455, 442, 432, 412, 398, 385, 379, 365, 360, 352, 349, 339, 334, 329, 324, 312, 306, 303, 300, 292, 290, 285, 280, 269, 264, 259, 257, 247, 244, 240, 234, 226, 224, 221, 220, 215, 214, 211, 207, 202, 199, 198, 197, 196, 196, 196, 196, 196, 196, 196, 196, 196, 196]","[1010, 1010, 1010, 1010, 1010, 1010, 1010, 1010, 1010, 1010, 1010, 1010, 1010, 1010, 1010, 1010, 1010, 1007, 1005, 1003, 1002, 997, 993, 990, 988, 980, 976, 973, 965, 949, 939, 930, 918, 899, 891, 882, 875, 857, 850, 843, 837, 823, 815, 807, 801, 788, 781, 775, 771, 759, 754, 745, 739, 724, 716, 708, 700, 681, 669, 659, 643, 613, 595, 580, 559, 525, 510, 492, 478, 451, 436, 421, 411, 392, 383, 374, 367, 351, 342, 334, 327, 309, 299, 292, 283, 265, 259, 251, 241, 221, 211, 202, 192, 174, 168, 159, 151, 136, 128, 122, 115, 102, 96, 90, 84, 78, 75, 73, 73, 72, 72, 72, 72, 72, 72, 72, 72, 72, 72]"
"Trust","Teilnehmer A hat Ihnen 2 Punkte übermittelt.","Payback","1","undefined","22","0","7","60","1080","271","5","1","845","0","legacy","[11, 21, 31, 41, 51, 61, 71, 81, 91, 101, 111, 121, 131, 141, 151, 161, 171, 181, 191, 201, 211, 221, 231, 241, 251, 261, 271, 281, 291, 301, 311, 321, 331, 341, 351, 361, 371, 381, 391, 401, 411, 421, 431, 441, 451, 461, 471, 481, 491, 501, 511, 521, 531, 541, 551, 561, 571, 581, 591, 601, 611, 621, 631, 641, 651, 661, 671, 681, 691, 701, 711, 721, 731, 741, 751, 761, 771, 781, 791, 801, 811, 821, 831, 841]","1164","1920","[960, 960, 960, 960, 960, 960, 960, 959, 959, 959, 958, 958, 957, 957, 953, 952, 950, 946, 942, 936, 931, 925, 907, 898, 886, 874, 845, 828, 812, 793, 743, 714, 685, 660, 612, 594, 574, 554, 513, 493, 475, 459, 415, 397, 377, 356, 330, 321, 309, 301, 285, 279, 272, 264, 249, 244, 236, 231, 218, 213, 207, 202, 191, 186, 182, 179, 173, 172, 171, 170, 169, 169, 169, 169, 170, 171, 171, 171, 171, 171, 171, 171, 171, 171]","[1010, 1010, 1010, 1010, 1010, 1010, 1010, 1010, 1010, 1010, 1010, 1010, 1010, 1010, 1009, 1009, 1007, 1006, 1003, 999, 997, 994, 982, 976, 968, 957, 927, 909, 887, 859, 803, 771, 744, 717, 662, 637, 613, 590, 541, 518, 495, 479, 441, 426, 409, 394, 368, 358, 342, 330, 309, 298, 290, 278, 256, 248, 240, 232, 218, 213, 205, 198, 182, 176, 171, 166, 155, 149, 147, 141, 134, 131, 128, 125, 122, 122, 121, 121, 121, 121, 121, 121, 121, 121]"
"Trust","Teilnehmer A hat Ihnen 2 Punkte übermittelt.","Payback","0","undefined","23","0","7","60","1080","391","10","2","1476","0","legacy","[11, 21, 31, 41, 51, 61, 71, 81, 91, 101, 111, 121, 131, 141, 151, 161, 171, 181, 191, 201, 211, 221, 231, 241, 251, 261, 271, 281, 291, 301, 311, 321, 331, 341, 351, 361, 371, 381, 391, 401, 411, 421, 431, 441, 451, 461, 471, 481, 491, 501, 511, 521, 531, 541, 551, 561, 571, 581, 591, 601, 611, 621, 631, 641, 651, 661, 671, 681, 691, 701, 711, 721, 731, 741, 751, 761, 771, 781, 791, 801, 811, 821, 831, 841, 851, 861, 871, 881, 891, 901, 911, 921, 931, 941, 951, 961, 971, 981, 991, 1001, 1011, 1021, 1031, 1041, 1051, 1061, 1071, 1081, 1091, 1101, 1111, 1121, 1131, 1141, 1151, 1161, 1171, 1181, 1191, 1201, 1211, 1221, 1231, 1241, 1251, 1261, 1271, 1281, 1291, 1301, 1311, 1321, 1331, 1341, 1351, 1361, 1371, 1381, 1391, 1401, 1411, 1421, 1431, 1441, 1451, 1461, 1471]","1164","1920","[960, 960, 960, 960, 960, 960, 960, 960, 960, 960, 960, 960, 960, 960, 960, 960, 960, 960, 960, 960, 959, 953, 947, 943, 940, 938, 938, 937, 936, 936, 936, 936, 936, 936, 936, 942, 948, 958, 960, 963, 964, 964, 968, 971, 978, 998, 1010, 1025, 1042, 1067, 1083, 1096, 1108, 1124, 1130, 1137, 1145, 1162, 1173, 1182, 1191, 1211, 1219, 1230, 1238, 1256, 1263, 1268, 1276, 1291, 1298, 1306, 1314, 1330, 1339, 1344, 1351, 1358, 1363, 1365, 1368, 1372, 1376, 1378, 1382, 1390, 1397, 1404, 1407, 1420, 1426, 1433, 1439, 1454, 1461, 1468, 1479, 1498, 1505, 1515, 1525, 1542, 1550, 1560, 1566, 1582, 1589, 1595, 1601, 1615, 1620, 1626, 1629, 1637, 1640, 1645, 1649, 1655, 1658, 1660, 1663, 1667, 1668, 1671, 1671, 1672, 1673, 1673, 1673, 1673, 1673, 1673, 1673, 1673, 1673, 1673, 1673, 1673, 1673, 1674, 1674, 1674, 1674, 1674, 1674, 1674, 1674]","[1010, 1010, 1010, 1010, 1010, 1010, 1010, 1010, 1010, 1010, 1010, 1010, 1010, 1010, 1010, 1010, 1010, 1011, 1011, 1011, 1011, 1009, 1003, 998, 995, 992, 990, 989, 988, 988, 987, 986, 986, 983, 978, 970, 963, 941, 930, 918, 903, 871, 855, 841, 823, 773, 747, 722, 695, 649, 626, 605, 586, 552, 536, 521, 501, 464, 450, 438, 427, 410, 405, 398, 394, 383, 380, 376, 370, 360, 354, 348, 340, 327, 321, 317, 313, 308, 305, 304, 303, 299, 297, 296, 293, 290, 286, 283, 282, 277, 276, 273, 272, 267, 264, 261, 257, 249, 245, 243, 239, 232, 228, 223, 221, 214, 211, 208, 203, 196, 192, 187, 185, 179, 176, 171, 169, 160, 158, 154, 151, 145, 143, 138, 138, 132, 131, 129, 128, 126, 126, 125, 124, 123, 122, 121, 120, 120, 119, 118, 118, 118, 118, 118, 118, 118, 118]"
CHF,TotCHF,final_payoff,sum
"15","35","[5, 10, 10, 5]","30"
