Condition,PromiseStage,Stage,accuracy,avg_rt,count_decision_sequence,count_loop1,count_trial_sequence,font_size,height,init_time,payoff,response,rt,subject_nr,synth_backend,tTrajectory,time_experiment,width,xTrajectory,yTrajectory
"Promise","Wie oft werden Sie die Hälfte zurückgeben?","Promise","1","undefined","NA","0","0","60","1080","311","NA","1","1694","0","legacy","[11, 21, 31, 41, 51, 61, 71, 81, 91, 101, 111, 121, 131, 141, 151, 161, 171, 181, 191, 201, 211, 221, 231, 241, 251, 261, 271, 281, 291, 301, 311, 321, 331, 341, 351, 361, 371, 381, 391, 401, 411, 421, 431, 441, 451, 461, 471, 481, 491, 501, 511, 521, 531, 541, 551, 561, 571, 581, 591, 601, 611, 621, 631, 641, 651, 661, 671, 681, 691, 701, 711, 721, 731, 741, 751, 761, 771, 781, 791, 801, 811, 821, 831, 841, 851, 861, 871, 881, 891, 901, 911, 921, 931, 941, 951, 961, 971, 981, 991, 1001, 1011, 1021, 1031, 1041, 1051, 1061, 1071, 1081, 1091, 1101, 1111, 1121, 1131, 1141, 1151, 1161, 1171, 1181, 1191, 1201, 1211, 1221, 1231, 1241, 1251, 1261, 1271, 1281, 1291, 1301, 1311, 1321, 1331, 1341, 1351, 1361, 1371, 1381, 1391, 1401, 1411, 1421, 1431, 1441, 1451, 1461, 1471, 1481, 1491, 1501, 1511, 1521, 1531, 1541, 1551, 1561, 1571, 1581, 1591, 1601, 1611, 1621, 1631, 1641, 1651, 1661, 1671, 1681, 1691]","1081","1920","[960, 960, 960, 960, 960, 960, 960, 960, 960, 960, 960, 960, 960, 960, 960, 960, 960, 960, 960, 960, 960, 960, 960, 961, 962, 963, 965, 967, 971, 974, 977, 984, 988, 990, 992, 995, 996, 998, 998, 998, 998, 998, 998, 998, 998, 998, 998, 996, 992, 984, 962, 949, 934, 918, 886, 874, 861, 850, 841, 821, 810, 801, 794, 773, 763, 753, 729, 720, 710, 702, 692, 689, 688, 687, 685, 684, 683, 681, 678, 675, 674, 671, 666, 664, 659, 658, 651, 647, 645, 643, 638, 635, 632, 629, 623, 617, 610, 604, 591, 583, 577, 565, 536, 522, 510, 501, 487, 485, 482, 477, 464, 453, 442, 429, 409, 402, 399, 394, 390, 386, 378, 373, 365, 363, 361, 358, 353, 348, 339, 328, 304, 294, 285, 275, 265, 264, 263, 263, 262, 262, 261, 259, 247, 237, 227, 219, 203, 197, 191, 188, 183, 183, 183, 183, 183, 181, 181, 180, 180, 180, 180, 180, 180, 180, 180, 180, 180, 180, 180]","[1010, 1010, 1010, 1010, 1010, 1010, 1010, 1010, 1010, 1010, 1010, 1010, 1010, 1010, 1010, 1010, 1010, 1010, 1010, 1010, 1010, 1010, 1010, 1009, 1004, 998, 990, 969, 957, 941, 925, 899, 888, 882, 873, 864, 860, 854, 848, 831, 822, 814, 803, 787, 777, 766, 756, 728, 706, 678, 609, 579, 542, 510, 451, 422, 393, 356, 323, 251, 212, 179, 159, 107, 81, 60, 21, 5, 0, 0, 0, 0, 0, 0, 0, 0, 0, 0, 0, 0, 0, 0, 3, 4, 6, 7, 9, 9, 10, 11, 11, 12, 14, 16, 19, 21, 24, 24, 25, 26, 26, 29, 32, 34, 36, 36, 36, 36, 36, 36, 36, 34, 33, 33, 32, 30, 30, 29, 29, 28, 26, 25, 25, 24, 24, 24, 24, 24, 24, 24, 24, 24, 25, 27, 32, 33, 33, 33, 34, 34, 34, 34, 34, 34, 34, 34, 35, 36, 37, 39, 40, 40, 40, 40, 40, 40, 40, 41, 41, 41, 41, 41, 41, 41, 41, 41, 41, 41, 41]"
Cond,DecisionB,Stage,accuracy,avg_rt,count_decision_sequence,count_loop1,count_trial_sequence,font_size,height,init_time,payoff,response,rt,subject_nr,synth_backend,tTrajectory,time_experiment,width,xTrajectory,yTrajectory
"Trust","Teilnehmer A hat Ihnen 2 Punkte übermittelt.","Payback","1","undefined","0","0","0","60","1080","711","5","1","3293","0","legacy","[11, 21, 31, 41, 51, 61, 71, 81, 91, 101, 111, 121, 131, 141, 151, 161, 171, 181, 191, 201, 211, 221, 231, 241, 251, 261, 271, 281, 291, 301, 311, 321, 331, 341, 351, 361, 371, 381, 391, 401, 411, 421, 431, 441, 451, 461, 471, 481, 491, 501, 511, 521, 531, 541, 551, 561, 571, 581, 591, 601, 611, 621, 631, 641, 651, 661, 671, 681, 691, 701, 711, 721, 731, 741, 751, 761, 771, 781, 791, 801, 811, 821, 831, 841, 851, 861, 871, 881, 891, 901, 911, 921, 931, 941, 951, 961, 971, 981, 991, 1001, 1011, 1021, 1031, 1041, 1051, 1061, 1071, 1081, 1091, 1101, 1111, 1121, 1131, 1141, 1151, 1161, 1171, 1181, 1191, 1201, 1211, 1221, 1231, 1241, 1251, 1261, 1271, 1281, 1291, 1301, 1311, 1321, 1331, 1341, 1351, 1361, 1371, 1381, 1391, 1401, 1411, 1421, 1431, 1441, 1451, 1461, 1471, 1481, 1491, 1501, 1511, 1521, 1531, 1541, 1551, 1561, 1571, 1581, 1591, 1601, 1611, 1621, 1631, 1641, 1651, 1661, 1671, 1681, 1691, 1701, 1711, 1721, 1731, 1741, 1751, 1761, 1771, 1781, 1791, 1801, 1811, 1821, 1831, 1841, 1851, 1861, 1871, 1881, 1891, 1901, 1911, 1921, 1931, 1941, 1951, 1961, 1971, 1981, 1991, 2001, 2011, 2021, 2031, 2041, 2051, 2061, 2071, 2081, 2091, 2101, 2111, 2121, 2131, 2141, 2151, 2161, 2171, 2181, 2191, 2201, 2211, 2221, 2231, 2241, 2251, 2261, 2271, 2281, 2291, 2301, 2311, 2321, 2331, 2341, 2351, 2361, 2371, 2381, 2391, 2401, 2411, 2421, 2431, 2441, 2451, 2461, 2471, 2481, 2491, 2501, 2511, 2521, 2531, 2541, 2551, 2561, 2571, 2581, 2591, 2601, 2611, 2621, 2631, 2641, 2651, 2661, 2671, 2681, 2691, 2701, 2711, 2721, 2731, 2741, 2751, 2761, 2771, 2781, 2791, 2801, 2811, 2821, 2831, 2841, 2851, 2861, 2871, 2881, 2891, 2901, 2911, 2921, 2931, 2941, 2951, 2961, 2971, 2981, 2991, 3001, 3011, 3021, 3031, 3041, 3051, 3061, 3071, 3081, 3091, 3101, 3111, 3121, 3131, 3141, 3151, 3161, 3171, 3181, 3191, 3201, 3211, 3221, 3231, 3241, 3251, 3261, 3271, 3281, 3291]","1081","1920","[960, 960, 960, 960, 960, 960, 960, 960, 960, 960, 960, 960, 960, 960, 960, 960, 960, 960, 960, 960, 960, 960, 960, 960, 960, 960, 960, 960, 960, 960, 960, 960, 960, 960, 960, 960, 960, 960, 960, 960, 962, 963, 964, 964, 964, 966, 967, 967, 967, 968, 968, 968, 968, 968, 968, 968, 968, 968, 968, 968, 968, 968, 968, 968, 967, 967, 967, 966, 966, 966, 965, 965, 965, 963, 963, 963, 963, 963, 963, 963, 963, 963, 963, 963, 963, 963, 962, 962, 962, 962, 961, 960, 959, 958, 955, 955, 955, 955, 955, 955, 955, 954, 954, 954, 954, 954, 954, 954, 954, 954, 954, 954, 954, 954, 954, 954, 954, 954, 954, 954, 954, 954, 954, 954, 954, 954, 951, 948, 945, 943, 940, 939, 939, 937, 934, 932, 931, 931, 928, 928, 928, 928, 927, 927, 927, 927, 925, 924, 924, 923, 921, 921, 921, 919, 916, 915, 911, 908, 903, 899, 897, 894, 886, 883, 881, 879, 874, 872, 869, 867, 860, 858, 854, 851, 844, 842, 839, 834, 828, 825, 820, 818, 808, 807, 802, 799, 790, 788, 785, 782, 776, 771, 767, 764, 756, 753, 748, 745, 736, 733, 729, 727, 720, 717, 716, 712, 704, 701, 694, 689, 682, 681, 679, 679, 677, 677, 675, 674, 669, 664, 661, 659, 653, 651, 648, 646, 640, 634, 629, 624, 619, 619, 619, 619, 619, 618, 617, 616, 610, 607, 606, 603, 603, 602, 602, 602, 600, 598, 596, 596, 591, 591, 589, 587, 583, 580, 576, 572, 566, 560, 556, 554, 547, 544, 539, 533, 519, 514, 507, 501, 484, 473, 465, 454, 441, 437, 432, 427, 413, 402, 393, 381, 352, 341, 333, 326, 317, 313, 310, 308, 305, 299, 296, 290, 276, 267, 258, 248, 239, 234, 231, 230, 228, 226, 223, 222, 217, 214, 212, 209, 205, 203, 203, 201, 201, 201, 201, 201, 201, 201, 201, 201, 201, 201, 201, 201, 201, 201, 201]","[1010, 1010, 1010, 1010, 1010, 1010, 1010, 1010, 1010, 1010, 1010, 1010, 1010, 1010, 1010, 1010, 1010, 1010, 1010, 1010, 1010, 1010, 1010, 1010, 1010, 1010, 1010, 1010, 1010, 1010, 1010, 1010, 1010, 1010, 1010, 1010, 1009, 1006, 1004, 1001, 997, 985, 980, 974, 972, 965, 964, 962, 961, 960, 960, 960, 960, 960, 960, 960, 960, 960, 960, 960, 960, 960, 960, 959, 958, 953, 951, 948, 946, 943, 939, 937, 935, 927, 924, 921, 920, 917, 916, 916, 914, 913, 911, 910, 908, 906, 904, 903, 901, 895, 892, 889, 886, 881, 874, 870, 867, 865, 860, 859, 857, 854, 851, 850, 850, 849, 847, 847, 846, 844, 842, 841, 840, 839, 837, 835, 834, 832, 830, 829, 828, 827, 825, 822, 818, 814, 808, 799, 794, 789, 781, 775, 771, 766, 757, 751, 749, 747, 742, 740, 737, 734, 731, 729, 727, 726, 722, 720, 719, 718, 714, 714, 712, 711, 707, 705, 700, 698, 692, 688, 684, 680, 671, 668, 665, 663, 656, 654, 650, 648, 640, 637, 633, 628, 620, 616, 611, 606, 599, 597, 592, 589, 583, 581, 577, 574, 567, 565, 563, 560, 555, 552, 549, 547, 541, 539, 534, 531, 524, 523, 520, 518, 513, 511, 510, 506, 501, 498, 496, 493, 489, 488, 487, 487, 485, 485, 485, 484, 481, 478, 476, 476, 473, 473, 470, 469, 464, 461, 458, 455, 455, 455, 455, 455, 455, 455, 454, 454, 449, 448, 447, 446, 446, 446, 445, 445, 444, 442, 441, 440, 436, 435, 433, 432, 427, 424, 421, 417, 411, 406, 402, 400, 395, 392, 389, 384, 373, 367, 359, 352, 335, 327, 320, 314, 306, 304, 302, 298, 286, 277, 269, 258, 234, 227, 221, 217, 215, 212, 211, 209, 203, 194, 188, 179, 160, 152, 144, 138, 132, 129, 127, 125, 120, 115, 109, 106, 97, 91, 87, 84, 78, 75, 75, 74, 73, 73, 73, 73, 73, 73, 73, 73, 73, 73, 73, 73, 73, 73, 73]"
"Trust","Teilnehmer A hat Ihnen 2 Punkte übermittelt.","Payback","1","undefined","1","0","0","60","1080","241","5","1","1372","0","legacy","[11, 21, 31, 41, 51, 61, 71, 81, 91, 101, 111, 121, 131, 141, 151, 161, 171, 181, 191, 201, 211, 221, 231, 241, 251, 261, 271, 281, 291, 301, 311, 321, 331, 341, 351, 361, 371, 381, 391, 401, 411, 421, 431, 441, 451, 461, 471, 481, 491, 501, 511, 521, 531, 541, 551, 561, 571, 581, 591, 601, 611, 621, 631, 641, 651, 661, 671, 681, 691, 701, 711, 721, 731, 741, 751, 761, 771, 781, 791, 801, 811, 821, 831, 841, 851, 861, 871, 881, 891, 901, 911, 921, 931, 941, 951, 961, 971, 981, 991, 1001, 1011, 1021, 1031, 1041, 1051, 1061, 1071, 1081, 1091, 1101, 1111, 1121, 1131, 1141, 1151, 1161, 1171, 1181, 1191, 1201, 1211, 1221, 1231, 1241, 1251, 1261, 1271, 1281, 1291, 1301, 1311, 1321, 1331, 1341, 1351, 1361, 1371]","1081","1920","[960, 960, 960, 960, 960, 960, 960, 960, 960, 960, 960, 960, 960, 960, 960, 960, 959, 957, 954, 951, 948, 943, 938, 935, 931, 922, 918, 915, 913, 909, 908, 907, 906, 902, 898, 894, 891, 881, 873, 867, 859, 846, 839, 834, 831, 825, 823, 821, 816, 803, 793, 779, 767, 737, 727, 717, 709, 694, 684, 668, 653, 603, 584, 566, 556, 537, 528, 516, 505, 478, 461, 433, 413, 386, 378, 372, 367, 346, 336, 326, 316, 307, 307, 307, 307, 307, 307, 304, 299, 279, 264, 247, 234, 211, 203, 195, 189, 178, 175, 174, 172, 171, 169, 166, 164, 157, 151, 146, 142, 135, 132, 130, 128, 127, 127, 127, 127, 127, 126, 123, 116, 99, 93, 89, 87, 87, 87, 87, 87, 87, 87, 87, 87, 87, 87, 87, 87]","[1010, 1010, 1010, 1010, 1010, 1010, 1010, 1010, 1010, 1010, 1010, 1010, 1010, 1010, 1010, 1010, 1010, 1001, 994, 984, 976, 956, 945, 937, 930, 917, 912, 909, 906, 899, 894, 890, 885, 873, 865, 857, 853, 841, 836, 831, 825, 816, 811, 806, 799, 790, 783, 778, 769, 751, 741, 731, 722, 703, 695, 687, 682, 664, 650, 628, 603, 528, 503, 480, 469, 453, 444, 435, 426, 400, 379, 350, 324, 293, 284, 277, 272, 257, 250, 243, 238, 230, 230, 230, 230, 230, 230, 230, 229, 223, 217, 210, 205, 193, 188, 184, 178, 168, 166, 162, 159, 153, 148, 141, 133, 119, 112, 106, 102, 96, 94, 93, 91, 91, 91, 90, 90, 90, 88, 85, 80, 67, 62, 59, 57, 55, 54, 54, 54, 54, 54, 54, 54, 54, 54, 54, 54]"
"NoTrust","Teilnehmer A hat Ihnen keine 2 Punkte übermittelt.","Payback","1","undefined","2","0","0","60","1080","241","0","1","1372","0","legacy","[11, 21, 31, 41, 51, 61, 71, 81, 91, 101, 111, 121, 131, 141, 151, 161, 171, 181, 191, 201, 211, 221, 231, 241, 251, 261, 271, 281, 291, 301, 311, 321, 331, 341, 351, 361, 371, 381, 391, 401, 411, 421, 431, 441, 451, 461, 471, 481, 491, 501, 511, 521, 531, 541, 551, 561, 571, 581, 591, 601, 611, 621, 631, 641, 651, 661, 671, 681, 691, 701, 711, 721, 731, 741, 751, 761, 771, 781, 791, 801, 811, 821, 831, 841, 851, 861, 871, 881, 891, 901, 911, 921, 931, 941, 951, 961, 971, 981, 991, 1001, 1011, 1021, 1031, 1041, 1051, 1061, 1071, 1081, 1091, 1101, 1111, 1121, 1131, 1141, 1151, 1161, 1171, 1181, 1191, 1201, 1211, 1221, 1231, 1241, 1251, 1261, 1271, 1281, 1291, 1301, 1311, 1321, 1331, 1341, 1351, 1361, 1371]","1081","1920","[960, 960, 960, 960, 960, 960, 960, 960, 960, 960, 960, 960, 960, 960, 960, 960, 959, 957, 954, 951, 948, 943, 938, 935, 931, 922, 918, 915, 913, 909, 908, 907, 906, 902, 898, 894, 891, 881, 873, 867, 859, 846, 839, 834, 831, 825, 823, 821, 816, 803, 793, 779, 767, 737, 727, 717, 709, 694, 684, 668, 653, 603, 584, 566, 556, 537, 528, 516, 505, 478, 461, 433, 413, 386, 378, 372, 367, 346, 336, 326, 316, 307, 307, 307, 307, 307, 307, 304, 299, 279, 264, 247, 234, 211, 203, 195, 189, 178, 175, 174, 172, 171, 169, 166, 164, 157, 151, 146, 142, 135, 132, 130, 128, 127, 127, 127, 127, 127, 126, 123, 116, 99, 93, 89, 87, 87, 87, 87, 87, 87, 87, 87, 87, 87, 87, 87, 87]","[1010, 1010, 1010, 1010, 1010, 1010, 1010, 1010, 1010, 1010, 1010, 1010, 1010, 1010, 1010, 1010, 1010, 1001, 994, 984, 976, 956, 945, 937, 930, 917, 912, 909, 906, 899, 894, 890, 885, 873, 865, 857, 853, 841, 836, 831, 825, 816, 811, 806, 799, 790, 783, 778, 769, 751, 741, 731, 722, 703, 695, 687, 682, 664, 650, 628, 603, 528, 503, 480, 469, 453, 444, 435, 426, 400, 379, 350, 324, 293, 284, 277, 272, 257, 250, 243, 238, 230, 230, 230, 230, 230, 230, 230, 229, 223, 217, 210, 205, 193, 188, 184, 178, 168, 166, 162, 159, 153, 148, 141, 133, 119, 112, 106, 102, 96, 94, 93, 91, 91, 91, 90, 90, 90, 88, 85, 80, 67, 62, 59, 57, 55, 54, 54, 54, 54, 54, 54, 54, 54, 54, 54, 54]"
"Promise","Wie oft werden Sie die Hälfte zurückgeben?","Promise","1","undefined","2","0","1","60","1080","301","0","1","1486","0","legacy","[11, 21, 31, 41, 51, 61, 71, 81, 91, 101, 111, 121, 131, 141, 151, 161, 171, 181, 191, 201, 211, 221, 231, 241, 251, 261, 271, 281, 291, 301, 311, 321, 331, 341, 351, 361, 371, 381, 391, 401, 411, 421, 431, 441, 451, 461, 471, 481, 491, 501, 511, 521, 531, 541, 551, 561, 571, 581, 591, 601, 611, 621, 631, 641, 651, 661, 671, 681, 691, 701, 711, 721, 731, 741, 751, 761, 771, 781, 791, 801, 811, 821, 831, 841, 851, 861, 871, 881, 891, 901, 911, 921, 931, 941, 951, 961, 971, 981, 991, 1001, 1011, 1021, 1031, 1041, 1051, 1061, 1071, 1081, 1091, 1101, 1111, 1121, 1131, 1141, 1151, 1161, 1171, 1181, 1191, 1201, 1211, 1221, 1231, 1241, 1251, 1261, 1271, 1281, 1291, 1301, 1311, 1321, 1331, 1341, 1351, 1361, 1371, 1381, 1391, 1401, 1411, 1421, 1431, 1441, 1451, 1461, 1471, 1481]","1081","1920","[960, 960, 960, 960, 960, 960, 960, 960, 960, 960, 960, 960, 960, 960, 960, 960, 960, 959, 957, 955, 954, 953, 950, 949, 947, 945, 937, 934, 930, 926, 915, 911, 907, 906, 902, 900, 897, 894, 887, 882, 877, 872, 863, 861, 858, 857, 853, 851, 845, 840, 829, 824, 819, 815, 809, 803, 799, 794, 784, 776, 770, 763, 750, 745, 740, 735, 723, 716, 707, 695, 673, 664, 655, 644, 626, 611, 596, 583, 562, 556, 549, 544, 531, 524, 518, 506, 487, 469, 446, 425, 387, 372, 363, 355, 346, 341, 336, 330, 310, 297, 286, 274, 263, 260, 259, 259, 256, 252, 247, 239, 212, 204, 194, 189, 185, 183, 183, 182, 179, 177, 170, 163, 146, 143, 140, 138, 138, 138, 138, 138, 138, 138, 137, 137, 137, 137, 137, 137, 137, 137, 137, 137, 137, 137, 137, 137, 137, 137]","[1010, 1010, 1010, 1010, 1010, 1010, 1010, 1010, 1010, 1010, 1010, 1010, 1010, 1010, 1010, 1010, 1010, 1010, 1010, 1008, 1007, 1006, 1001, 999, 996, 990, 974, 962, 951, 938, 915, 905, 898, 894, 884, 879, 873, 866, 851, 845, 839, 833, 825, 823, 821, 820, 816, 812, 806, 797, 779, 771, 765, 759, 749, 744, 738, 729, 715, 705, 696, 687, 672, 667, 659, 654, 641, 632, 621, 606, 581, 569, 561, 552, 530, 518, 504, 487, 464, 455, 447, 440, 426, 418, 412, 403, 383, 366, 346, 326, 296, 284, 276, 270, 258, 253, 247, 240, 221, 211, 205, 195, 188, 185, 185, 184, 182, 178, 171, 164, 144, 138, 132, 129, 124, 123, 123, 122, 119, 116, 111, 104, 94, 91, 89, 86, 85, 85, 85, 85, 85, 85, 84, 84, 83, 82, 82, 81, 81, 81, 81, 81, 81, 81, 81, 81, 81, 81]"
"Trust","Teilnehmer A hat Ihnen 2 Punkte übermittelt.","Payback","1","undefined","3","0","1","60","1080","191","5","1","1382","0","legacy","[11, 21, 31, 41, 51, 61, 71, 81, 91, 101, 111, 121, 131, 141, 151, 161, 171, 181, 191, 201, 211, 221, 231, 241, 251, 261, 271, 281, 291, 301, 311, 321, 331, 341, 351, 361, 371, 381, 391, 401, 411, 421, 431, 441, 451, 461, 471, 481, 491, 501, 511, 521, 531, 541, 551, 561, 571, 581, 591, 601, 611, 621, 631, 641, 651, 661, 671, 681, 691, 701, 711, 721, 731, 741, 751, 761, 771, 781, 791, 801, 811, 821, 831, 841, 851, 861, 871, 881, 891, 901, 911, 921, 931, 941, 951, 961, 971, 981, 991, 1001, 1011, 1021, 1031, 1041, 1051, 1061, 1071, 1081, 1091, 1101, 1111, 1121, 1131, 1141, 1151, 1161, 1171, 1181, 1191, 1201, 1211, 1221, 1231, 1241, 1251, 1261, 1271, 1281, 1291, 1301, 1311, 1321, 1331, 1341, 1351, 1361, 1371, 1381]","1081","1920","[960, 960, 960, 960, 960, 960, 960, 960, 960, 960, 960, 960, 960, 960, 959, 954, 948, 940, 921, 916, 912, 910, 906, 905, 905, 901, 894, 885, 874, 860, 831, 820, 811, 805, 798, 796, 795, 794, 789, 787, 786, 785, 782, 779, 778, 774, 764, 758, 751, 744, 734, 729, 723, 718, 705, 695, 683, 670, 649, 638, 631, 620, 607, 599, 593, 584, 565, 552, 540, 523, 472, 438, 410, 390, 372, 367, 362, 360, 353, 350, 343, 334, 315, 305, 297, 292, 286, 284, 282, 279, 271, 268, 264, 259, 254, 252, 250, 248, 244, 243, 243, 243, 242, 242, 237, 234, 218, 211, 204, 197, 186, 180, 175, 170, 163, 162, 161, 161, 160, 160, 159, 158, 157, 155, 154, 154, 154, 154, 154, 154, 154, 154, 154, 154, 154, 154, 154, 154]","[1010, 1010, 1010, 1010, 1010, 1010, 1010, 1010, 1010, 1010, 1010, 1010, 1010, 1010, 1009, 999, 987, 971, 938, 929, 922, 916, 908, 906, 902, 892, 874, 859, 845, 827, 794, 783, 774, 768, 760, 755, 752, 748, 738, 733, 730, 728, 722, 718, 716, 709, 697, 688, 679, 670, 654, 649, 643, 634, 617, 604, 591, 578, 556, 547, 541, 533, 521, 513, 508, 501, 484, 473, 464, 449, 412, 389, 370, 355, 340, 335, 329, 323, 311, 304, 295, 286, 267, 261, 255, 251, 245, 242, 238, 235, 225, 221, 218, 214, 209, 207, 204, 201, 196, 195, 192, 191, 189, 188, 182, 179, 164, 158, 151, 145, 132, 126, 121, 116, 110, 107, 105, 102, 97, 95, 91, 89, 85, 84, 82, 81, 81, 81, 81, 81, 81, 81, 81, 81, 81, 81, 80, 80]"
"Trust","Teilnehmer A hat Ihnen 2 Punkte übermittelt.","Payback","1","undefined","4","0","1","60","1080","271","5","1","1310","0","legacy","[11, 21, 31, 41, 51, 61, 71, 81, 91, 101, 111, 121, 131, 141, 151, 161, 171, 181, 191, 201, 211, 221, 231, 241, 251, 261, 271, 281, 291, 301, 311, 321, 331, 341, 351, 361, 371, 381, 391, 401, 411, 421, 431, 441, 451, 461, 471, 481, 491, 501, 511, 521, 531, 541, 551, 561, 571, 581, 591, 601, 611, 621, 631, 641, 651, 661, 671, 681, 691, 701, 711, 721, 731, 741, 751, 761, 771, 781, 791, 801, 811, 821, 831, 841, 851, 861, 871, 881, 891, 901, 911, 921, 931, 941, 951, 961, 971, 981, 991, 1001, 1011, 1021, 1031, 1041, 1051, 1061, 1071, 1081, 1091, 1101, 1111, 1121, 1131, 1141, 1151, 1161, 1171, 1181, 1191, 1201, 1211, 1221, 1231, 1241, 1251, 1261, 1271, 1281, 1291, 1301]","1081","1920","[960, 960, 960, 960, 960, 960, 960, 960, 960, 960, 960, 960, 960, 960, 960, 960, 960, 960, 960, 960, 960, 960, 958, 953, 951, 946, 933, 924, 916, 910, 897, 893, 888, 884, 878, 876, 874, 872, 868, 865, 862, 855, 841, 828, 815, 805, 784, 775, 769, 763, 746, 738, 728, 720, 704, 692, 676, 660, 626, 611, 597, 583, 562, 552, 546, 539, 525, 520, 513, 509, 499, 494, 490, 485, 475, 470, 464, 459, 448, 441, 433, 423, 405, 395, 382, 372, 341, 324, 309, 297, 275, 268, 259, 251, 233, 223, 217, 211, 205, 202, 202, 200, 196, 194, 193, 191, 187, 186, 183, 183, 182, 180, 178, 176, 172, 171, 171, 170, 169, 169, 169, 169, 169, 169, 169, 169, 169, 169, 169, 169]","[1010, 1010, 1010, 1010, 1010, 1010, 1010, 1010, 1010, 1010, 1010, 1010, 1010, 1010, 1010, 1010, 1010, 1010, 1007, 1004, 999, 993, 981, 973, 963, 952, 924, 910, 896, 885, 862, 853, 847, 838, 824, 815, 808, 804, 792, 785, 779, 768, 744, 724, 709, 695, 672, 661, 653, 644, 620, 608, 593, 581, 558, 545, 529, 514, 481, 465, 452, 437, 410, 399, 391, 380, 365, 359, 351, 346, 336, 331, 326, 321, 310, 305, 299, 294, 284, 280, 275, 269, 260, 256, 250, 243, 228, 217, 209, 202, 188, 183, 176, 171, 159, 153, 148, 144, 138, 136, 135, 132, 127, 124, 122, 120, 115, 114, 110, 110, 106, 104, 102, 100, 95, 94, 93, 90, 89, 89, 89, 89, 89, 89, 89, 89, 89, 89, 89, 89]"
"Trust","Teilnehmer A hat Ihnen 2 Punkte übermittelt.","Payback","1","undefined","5","0","1","60","1080","291","5","1","1204","0","legacy","[11, 21, 31, 41, 51, 61, 71, 81, 91, 101, 111, 121, 131, 141, 151, 161, 171, 181, 191, 201, 211, 221, 231, 241, 251, 261, 271, 281, 291, 301, 311, 321, 331, 341, 351, 361, 371, 381, 391, 401, 411, 421, 431, 441, 451, 461, 471, 481, 491, 501, 511, 521, 531, 541, 551, 561, 571, 581, 591, 601, 611, 621, 631, 641, 651, 661, 671, 681, 691, 701, 711, 721, 731, 741, 751, 761, 771, 781, 791, 801, 811, 821, 831, 841, 851, 861, 871, 881, 891, 901, 911, 921, 931, 941, 951, 961, 971, 981, 991, 1001, 1011, 1021, 1031, 1041, 1051, 1061, 1071, 1081, 1091, 1101, 1111, 1121, 1131, 1141, 1151, 1161, 1171, 1181, 1191, 1201]","1081","1920","[960, 960, 960, 960, 960, 960, 960, 960, 960, 960, 960, 960, 960, 960, 960, 960, 960, 960, 960, 960, 959, 954, 951, 948, 946, 941, 939, 937, 934, 931, 926, 923, 919, 910, 905, 899, 894, 884, 880, 877, 873, 865, 860, 852, 835, 790, 770, 755, 742, 723, 715, 708, 701, 675, 651, 621, 592, 542, 519, 501, 489, 469, 456, 440, 424, 399, 390, 389, 384, 382, 381, 378, 376, 361, 353, 347, 345, 339, 338, 335, 334, 325, 315, 305, 292, 263, 252, 242, 236, 224, 219, 214, 206, 173, 157, 146, 137, 121, 115, 112, 111, 106, 101, 98, 96, 95, 94, 94, 94, 94, 94, 94, 94, 94, 94, 94, 94, 94, 94, 94]","[1010, 1010, 1010, 1010, 1010, 1010, 1010, 1010, 1010, 1010, 1010, 1010, 1010, 1010, 1010, 1010, 1010, 1010, 1010, 1007, 1001, 991, 983, 977, 971, 958, 950, 941, 932, 918, 907, 894, 885, 859, 847, 834, 824, 807, 799, 793, 786, 768, 756, 739, 714, 652, 631, 617, 606, 589, 580, 573, 563, 525, 491, 461, 438, 401, 385, 370, 360, 338, 318, 296, 276, 255, 251, 250, 250, 247, 247, 244, 240, 224, 217, 213, 212, 209, 209, 208, 208, 203, 198, 188, 180, 162, 156, 151, 146, 138, 135, 130, 124, 99, 90, 83, 79, 69, 65, 62, 61, 53, 47, 44, 43, 42, 41, 41, 41, 41, 41, 41, 41, 41, 41, 41, 41, 41, 41, 41]"
"Promise","Wie oft werden Sie die Hälfte zurückgeben?","Promise","1","undefined","5","0","2","60","1080","211","5","1","1240","0","legacy","[11, 21, 31, 41, 51, 61, 71, 81, 91, 101, 111, 121, 131, 141, 151, 161, 171, 181, 191, 201, 211, 221, 231, 241, 251, 261, 271, 281, 291, 301, 311, 321, 331, 341, 351, 361, 371, 381, 391, 401, 411, 421, 431, 441, 451, 461, 471, 481, 491, 501, 511, 521, 531, 541, 551, 561, 571, 581, 591, 601, 611, 621, 631, 641, 651, 661, 671, 681, 691, 701, 711, 721, 731, 741, 751, 761, 771, 781, 791, 801, 811, 821, 831, 841, 851, 861, 871, 881, 891, 901, 911, 921, 931, 941, 951, 961, 971, 981, 991, 1001, 1011, 1021, 1031, 1041, 1051, 1061, 1071, 1081, 1091, 1101, 1111, 1121, 1131, 1141, 1151, 1161, 1171, 1181, 1191, 1201, 1211, 1221, 1231]","1081","1920","[960, 960, 960, 960, 960, 960, 960, 960, 960, 960, 960, 960, 960, 960, 959, 955, 950, 944, 934, 913, 902, 895, 891, 883, 874, 864, 858, 835, 819, 805, 793, 781, 780, 779, 778, 774, 769, 762, 757, 745, 736, 728, 718, 702, 692, 680, 662, 624, 615, 609, 604, 591, 587, 582, 579, 566, 557, 545, 535, 518, 509, 501, 494, 485, 484, 479, 475, 463, 455, 447, 439, 426, 420, 412, 405, 388, 379, 365, 353, 339, 336, 334, 331, 324, 320, 314, 305, 281, 269, 265, 260, 259, 258, 257, 256, 254, 253, 250, 246, 236, 233, 229, 229, 227, 227, 227, 227, 227, 227, 227, 226, 222, 221, 219, 219, 219, 219, 219, 219, 219, 219, 219, 219]","[1010, 1010, 1010, 1010, 1010, 1010, 1010, 1010, 1010, 1010, 1010, 1010, 1010, 1010, 1010, 1006, 998, 991, 979, 953, 936, 923, 913, 890, 875, 856, 846, 813, 793, 771, 756, 742, 741, 739, 738, 730, 724, 715, 707, 690, 679, 672, 662, 649, 640, 631, 614, 582, 574, 569, 564, 553, 550, 545, 541, 528, 519, 510, 498, 484, 478, 472, 467, 456, 453, 445, 438, 416, 405, 396, 385, 375, 367, 358, 348, 325, 311, 296, 281, 262, 258, 255, 249, 238, 230, 218, 200, 162, 143, 131, 123, 117, 116, 113, 110, 107, 104, 100, 95, 86, 84, 82, 82, 81, 81, 81, 81, 81, 81, 81, 81, 81, 81, 81, 81, 81, 81, 81, 81, 81, 81, 81, 81]"
"NoTrust","Teilnehmer A hat Ihnen keine 2 Punkte übermittelt.","Payback","1","undefined","6","0","2","60","1080","211","0","1","1240","0","legacy","[11, 21, 31, 41, 51, 61, 71, 81, 91, 101, 111, 121, 131, 141, 151, 161, 171, 181, 191, 201, 211, 221, 231, 241, 251, 261, 271, 281, 291, 301, 311, 321, 331, 341, 351, 361, 371, 381, 391, 401, 411, 421, 431, 441, 451, 461, 471, 481, 491, 501, 511, 521, 531, 541, 551, 561, 571, 581, 591, 601, 611, 621, 631, 641, 651, 661, 671, 681, 691, 701, 711, 721, 731, 741, 751, 761, 771, 781, 791, 801, 811, 821, 831, 841, 851, 861, 871, 881, 891, 901, 911, 921, 931, 941, 951, 961, 971, 981, 991, 1001, 1011, 1021, 1031, 1041, 1051, 1061, 1071, 1081, 1091, 1101, 1111, 1121, 1131, 1141, 1151, 1161, 1171, 1181, 1191, 1201, 1211, 1221, 1231]","1081","1920","[960, 960, 960, 960, 960, 960, 960, 960, 960, 960, 960, 960, 960, 960, 959, 955, 950, 944, 934, 913, 902, 895, 891, 883, 874, 864, 858, 835, 819, 805, 793, 781, 780, 779, 778, 774, 769, 762, 757, 745, 736, 728, 718, 702, 692, 680, 662, 624, 615, 609, 604, 591, 587, 582, 579, 566, 557, 545, 535, 518, 509, 501, 494, 485, 484, 479, 475, 463, 455, 447, 439, 426, 420, 412, 405, 388, 379, 365, 353, 339, 336, 334, 331, 324, 320, 314, 305, 281, 269, 265, 260, 259, 258, 257, 256, 254, 253, 250, 246, 236, 233, 229, 229, 227, 227, 227, 227, 227, 227, 227, 226, 222, 221, 219, 219, 219, 219, 219, 219, 219, 219, 219, 219]","[1010, 1010, 1010, 1010, 1010, 1010, 1010, 1010, 1010, 1010, 1010, 1010, 1010, 1010, 1010, 1006, 998, 991, 979, 953, 936, 923, 913, 890, 875, 856, 846, 813, 793, 771, 756, 742, 741, 739, 738, 730, 724, 715, 707, 690, 679, 672, 662, 649, 640, 631, 614, 582, 574, 569, 564, 553, 550, 545, 541, 528, 519, 510, 498, 484, 478, 472, 467, 456, 453, 445, 438, 416, 405, 396, 385, 375, 367, 358, 348, 325, 311, 296, 281, 262, 258, 255, 249, 238, 230, 218, 200, 162, 143, 131, 123, 117, 116, 113, 110, 107, 104, 100, 95, 86, 84, 82, 82, 81, 81, 81, 81, 81, 81, 81, 81, 81, 81, 81, 81, 81, 81, 81, 81, 81, 81, 81, 81]"
"Trust","Teilnehmer A hat Ihnen 2 Punkte übermittelt.","Payback","1","undefined","7","0","2","60","1080","251","5","1","1358","0","legacy","[11, 21, 31, 41, 51, 61, 71, 81, 91, 101, 111, 121, 131, 141, 151, 161, 171, 181, 191, 201, 211, 221, 231, 241, 251, 261, 271, 281, 291, 301, 311, 321, 331, 341, 351, 361, 371, 381, 391, 401, 411, 421, 431, 441, 451, 461, 471, 481, 491, 501, 511, 521, 531, 541, 551, 561, 571, 581, 591, 601, 611, 621, 631, 641, 651, 661, 671, 681, 691, 701, 711, 721, 731, 741, 751, 761, 771, 781, 791, 801, 811, 821, 831, 841, 851, 861, 871, 881, 891, 901, 911, 921, 931, 941, 951, 961, 971, 981, 991, 1001, 1011, 1021, 1031, 1041, 1051, 1061, 1071, 1081, 1091, 1101, 1111, 1121, 1131, 1141, 1151, 1161, 1171, 1181, 1191, 1201, 1211, 1221, 1231, 1241, 1251, 1261, 1271, 1281, 1291, 1301, 1311, 1321, 1331, 1341, 1351]","1081","1920","[960, 960, 960, 960, 960, 960, 960, 960, 960, 960, 960, 960, 960, 960, 957, 955, 952, 950, 942, 938, 932, 927, 916, 910, 905, 901, 895, 889, 884, 875, 851, 838, 831, 825, 819, 818, 817, 817, 814, 810, 804, 796, 777, 768, 760, 755, 746, 741, 735, 730, 717, 706, 700, 691, 673, 664, 656, 647, 614, 594, 576, 554, 520, 503, 493, 485, 476, 472, 469, 466, 457, 452, 445, 436, 416, 406, 396, 388, 371, 363, 355, 345, 321, 310, 297, 287, 267, 260, 255, 252, 243, 241, 238, 235, 227, 225, 221, 217, 212, 209, 205, 202, 198, 196, 194, 193, 190, 190, 190, 190, 190, 189, 188, 188, 185, 184, 184, 183, 183, 183, 183, 183, 183, 183, 183, 183, 183, 183, 183, 183, 183, 183, 183, 183, 183]","[1010, 1010, 1010, 1010, 1010, 1010, 1010, 1010, 1010, 1010, 1010, 1010, 1010, 1010, 1010, 1010, 1009, 1006, 997, 990, 983, 973, 956, 946, 935, 925, 904, 891, 877, 854, 806, 782, 769, 757, 740, 733, 725, 715, 693, 681, 670, 659, 636, 627, 619, 614, 604, 597, 588, 580, 559, 547, 538, 528, 511, 502, 493, 482, 450, 433, 420, 404, 380, 368, 360, 353, 343, 334, 328, 321, 307, 301, 294, 287, 272, 264, 257, 251, 236, 230, 224, 219, 208, 204, 198, 192, 182, 178, 175, 174, 169, 168, 165, 164, 159, 158, 155, 153, 150, 148, 145, 142, 139, 135, 133, 131, 125, 123, 120, 117, 114, 113, 110, 109, 104, 101, 100, 98, 94, 92, 90, 88, 88, 88, 87, 87, 87, 87, 87, 87, 87, 87, 87, 87, 87]"
"Trust","Teilnehmer A hat Ihnen 2 Punkte übermittelt.","Payback","1","undefined","8","0","2","60","1080","221","5","1","1172","0","legacy","[11, 21, 31, 41, 51, 61, 71, 81, 91, 101, 111, 121, 131, 141, 151, 161, 171, 181, 191, 201, 211, 221, 231, 241, 251, 261, 271, 281, 291, 301, 311, 321, 331, 341, 351, 361, 371, 381, 391, 401, 411, 421, 431, 441, 451, 461, 471, 481, 491, 501, 511, 521, 531, 541, 551, 561, 571, 581, 591, 601, 611, 621, 631, 641, 651, 661, 671, 681, 691, 701, 711, 721, 731, 741, 751, 761, 771, 781, 791, 801, 811, 821, 831, 841, 851, 861, 871, 881, 891, 901, 911, 921, 931, 941, 951, 961, 971, 981, 991, 1001, 1011, 1021, 1031, 1041, 1051, 1061, 1071, 1081, 1091, 1101, 1111, 1121, 1131, 1141, 1151, 1161, 1171]","1081","1920","[960, 960, 960, 960, 960, 960, 960, 960, 960, 960, 960, 960, 960, 958, 958, 954, 950, 937, 926, 917, 908, 891, 880, 870, 858, 847, 842, 840, 837, 833, 830, 826, 820, 808, 797, 789, 781, 771, 769, 766, 764, 757, 752, 744, 738, 718, 702, 689, 675, 657, 651, 646, 643, 639, 634, 631, 625, 599, 584, 564, 547, 519, 510, 502, 497, 483, 474, 464, 451, 418, 402, 384, 370, 348, 340, 330, 323, 312, 308, 304, 300, 288, 279, 267, 258, 238, 233, 228, 224, 220, 218, 214, 209, 194, 189, 185, 183, 180, 178, 177, 173, 164, 158, 156, 155, 155, 155, 155, 155, 155, 155, 155, 155, 155, 155, 155, 155]","[1010, 1010, 1010, 1010, 1010, 1010, 1010, 1010, 1010, 1010, 1010, 1010, 1010, 1011, 1010, 1004, 999, 984, 972, 963, 953, 929, 914, 895, 876, 853, 841, 836, 826, 811, 806, 798, 789, 771, 757, 748, 738, 724, 721, 716, 713, 701, 693, 685, 679, 662, 647, 636, 625, 612, 608, 603, 600, 591, 585, 577, 569, 547, 533, 519, 507, 484, 475, 465, 458, 436, 426, 410, 397, 363, 349, 330, 315, 283, 272, 258, 248, 230, 222, 213, 204, 183, 173, 159, 151, 133, 128, 123, 119, 114, 111, 106, 102, 91, 88, 85, 82, 80, 78, 77, 75, 68, 65, 64, 63, 63, 63, 63, 63, 63, 63, 63, 63, 63, 63, 63, 63]"
"Promise","Wie oft werden Sie die Hälfte zurückgeben?","Promise","0","undefined","8","0","3","60","1080","261","5","2","1231","0","legacy","[11, 21, 31, 41, 51, 61, 71, 81, 91, 101, 111, 121, 131, 141, 151, 161, 171, 181, 191, 201, 211, 221, 231, 241, 251, 261, 271, 281, 291, 301, 311, 321, 331, 341, 351, 361, 371, 381, 391, 401, 411, 421, 431, 441, 451, 461, 471, 481, 491, 501, 511, 521, 531, 541, 551, 561, 571, 581, 591, 601, 611, 621, 631, 641, 651, 661, 671, 681, 691, 701, 711, 721, 731, 741, 751, 761, 771, 781, 791, 801, 811, 821, 831, 841, 851, 861, 871, 881, 891, 901, 911, 921, 931, 941, 951, 961, 971, 981, 991, 1001, 1011, 1021, 1031, 1041, 1051, 1061, 1071, 1081, 1091, 1101, 1111, 1121, 1131, 1141, 1151, 1161, 1171, 1181, 1191, 1201, 1211, 1221, 1231]","1081","1920","[960, 960, 960, 960, 960, 960, 960, 960, 960, 960, 960, 959, 959, 959, 958, 958, 958, 958, 958, 958, 958, 958, 958, 961, 964, 967, 974, 986, 994, 1001, 1003, 1011, 1013, 1016, 1017, 1025, 1030, 1036, 1044, 1057, 1063, 1072, 1080, 1099, 1107, 1117, 1126, 1140, 1149, 1159, 1167, 1181, 1187, 1194, 1205, 1235, 1257, 1277, 1300, 1332, 1344, 1357, 1371, 1402, 1423, 1445, 1469, 1507, 1523, 1533, 1545, 1555, 1561, 1565, 1568, 1577, 1583, 1589, 1597, 1605, 1610, 1613, 1617, 1622, 1626, 1630, 1631, 1637, 1641, 1645, 1648, 1657, 1665, 1672, 1680, 1696, 1703, 1710, 1713, 1718, 1718, 1720, 1721, 1721, 1722, 1722, 1722, 1722, 1722, 1722, 1722, 1722, 1722, 1722, 1722, 1722, 1722, 1722, 1722, 1722, 1722, 1722, 1722]","[1010, 1010, 1010, 1010, 1010, 1010, 1010, 1010, 1010, 1010, 1010, 1010, 1010, 1010, 1009, 1007, 1006, 1003, 998, 985, 978, 970, 963, 951, 944, 938, 927, 910, 891, 876, 862, 837, 829, 820, 813, 798, 789, 779, 769, 741, 726, 708, 690, 657, 641, 627, 613, 590, 576, 562, 550, 531, 522, 515, 502, 476, 462, 447, 430, 407, 396, 386, 376, 356, 343, 333, 320, 296, 281, 268, 249, 227, 215, 208, 203, 193, 189, 184, 179, 173, 168, 164, 159, 151, 147, 144, 141, 132, 126, 121, 116, 109, 103, 100, 96, 86, 81, 77, 74, 68, 65, 63, 62, 60, 60, 60, 60, 60, 60, 60, 60, 60, 60, 60, 60, 60, 60, 60, 60, 60, 60, 60, 60]"
"Trust","Teilnehmer A hat Ihnen 2 Punkte übermittelt.","Payback","1","undefined","9","0","3","60","1080","211","5","1","1030","0","legacy","[11, 21, 31, 41, 51, 61, 71, 81, 91, 101, 111, 121, 131, 141, 151, 161, 171, 181, 191, 201, 211, 221, 231, 241, 251, 261, 271, 281, 291, 301, 311, 321, 331, 341, 351, 361, 371, 381, 391, 401, 411, 421, 431, 441, 451, 461, 471, 481, 491, 501, 511, 521, 531, 541, 551, 561, 571, 581, 591, 601, 611, 621, 631, 641, 651, 661, 671, 681, 691, 701, 711, 721, 731, 741, 751, 761, 771, 781, 791, 801, 811, 821, 831, 841, 851, 861, 871, 881, 891, 901, 911, 921, 931, 941, 951, 961, 971, 981, 991, 1001, 1011, 1021]","1081","1920","[960, 960, 960, 960, 960, 960, 960, 960, 960, 960, 960, 960, 957, 949, 935, 932, 928, 924, 910, 903, 888, 867, 815, 790, 763, 734, 670, 635, 608, 581, 546, 534, 527, 521, 515, 510, 504, 493, 457, 433, 405, 382, 356, 347, 342, 338, 329, 324, 319, 313, 294, 284, 274, 266, 250, 246, 243, 241, 237, 230, 226, 219, 203, 191, 182, 170, 141, 124, 110, 98, 85, 82, 82, 82, 82, 82, 82, 81, 76, 75, 74, 74, 74, 74, 74, 74, 74, 74, 74, 74, 74, 74, 74, 74, 74, 74, 74, 74, 74, 74, 74, 74]","[1010, 1010, 1010, 1010, 1010, 1010, 1010, 1010, 1010, 1010, 1010, 1010, 1009, 1004, 994, 990, 985, 978, 960, 947, 922, 892, 816, 783, 746, 710, 638, 600, 573, 548, 511, 495, 481, 469, 447, 435, 424, 408, 371, 351, 327, 311, 291, 284, 279, 276, 267, 262, 258, 250, 237, 231, 227, 223, 216, 214, 212, 210, 203, 194, 189, 180, 164, 155, 147, 138, 117, 104, 95, 85, 71, 65, 65, 61, 57, 55, 51, 49, 42, 41, 39, 39, 39, 39, 39, 39, 39, 39, 39, 39, 39, 39, 39, 39, 39, 39, 39, 39, 39, 39, 39, 39]"
"Trust","Teilnehmer A hat Ihnen 2 Punkte übermittelt.","Payback","1","undefined","10","0","3","60","1080","311","5","1","1342","0","legacy","[11, 21, 31, 41, 51, 61, 71, 81, 91, 101, 111, 121, 131, 141, 151, 161, 171, 181, 191, 201, 211, 221, 231, 241, 251, 261, 271, 281, 291, 301, 311, 321, 331, 341, 351, 361, 371, 381, 391, 401, 411, 421, 431, 441, 451, 461, 471, 481, 491, 501, 511, 521, 531, 541, 551, 561, 571, 581, 591, 601, 611, 621, 631, 641, 651, 661, 671, 681, 691, 701, 711, 721, 731, 741, 751, 761, 771, 781, 791, 801, 811, 821, 831, 841, 851, 861, 871, 881, 891, 901, 911, 921, 931, 941, 951, 961, 971, 981, 991, 1001, 1011, 1021, 1031, 1041, 1051, 1061, 1071, 1081, 1091, 1101, 1111, 1121, 1131, 1141, 1151, 1161, 1171, 1181, 1191, 1201, 1211, 1221, 1231, 1241, 1251, 1261, 1271, 1281, 1291, 1301, 1311, 1321, 1331, 1341]","1081","1920","[960, 960, 960, 960, 960, 960, 960, 960, 960, 960, 960, 960, 960, 960, 960, 960, 960, 960, 960, 960, 959, 959, 958, 957, 954, 952, 947, 943, 942, 942, 942, 942, 942, 942, 936, 931, 924, 921, 914, 909, 907, 906, 902, 900, 898, 893, 885, 879, 871, 859, 840, 834, 828, 823, 813, 808, 801, 794, 773, 761, 752, 743, 722, 708, 698, 690, 666, 651, 639, 631, 619, 613, 605, 596, 565, 544, 517, 491, 467, 462, 460, 457, 452, 448, 444, 435, 400, 379, 367, 357, 346, 343, 341, 338, 328, 322, 311, 300, 268, 249, 226, 204, 181, 175, 174, 174, 173, 173, 173, 173, 172, 164, 153, 144, 134, 134, 134, 134, 134, 134, 134, 134, 134, 134, 134, 134, 134, 134, 134, 134, 134, 134, 134, 134]","[1010, 1010, 1010, 1010, 1010, 1010, 1010, 1010, 1010, 1010, 1010, 1010, 1010, 1010, 1010, 1010, 1010, 1010, 1010, 1010, 1008, 1007, 1003, 999, 992, 983, 962, 954, 948, 944, 939, 936, 932, 926, 909, 897, 882, 868, 839, 827, 817, 812, 801, 793, 788, 776, 755, 742, 727, 708, 673, 662, 652, 644, 625, 617, 605, 590, 561, 549, 539, 530, 507, 497, 488, 478, 453, 435, 420, 410, 395, 388, 381, 373, 349, 331, 312, 295, 276, 271, 267, 262, 254, 249, 243, 237, 215, 202, 197, 191, 185, 182, 181, 178, 173, 169, 164, 161, 149, 144, 138, 130, 124, 119, 119, 118, 116, 116, 115, 113, 108, 104, 102, 98, 92, 91, 90, 89, 88, 88, 88, 88, 88, 88, 88, 88, 88, 88, 88, 88, 88, 88, 88, 88]"
"Trust","Teilnehmer A hat Ihnen 2 Punkte übermittelt.","Payback","1","undefined","11","0","3","60","1080","281","5","1","1342","0","legacy","[11, 21, 31, 41, 51, 61, 71, 81, 91, 101, 111, 121, 131, 141, 151, 161, 171, 181, 191, 201, 211, 221, 231, 241, 251, 261, 271, 281, 291, 301, 311, 321, 331, 341, 351, 361, 371, 381, 391, 401, 411, 421, 431, 441, 451, 461, 471, 481, 491, 501, 511, 521, 531, 541, 551, 561, 571, 581, 591, 601, 611, 621, 631, 641, 651, 661, 671, 681, 691, 701, 711, 721, 731, 741, 751, 761, 771, 781, 791, 801, 811, 821, 831, 841, 851, 861, 871, 881, 891, 901, 911, 921, 931, 941, 951, 961, 971, 981, 991, 1001, 1011, 1021, 1031, 1041, 1051, 1061, 1071, 1081, 1091, 1101, 1111, 1121, 1131, 1141, 1151, 1161, 1171, 1181, 1191, 1201, 1211, 1221, 1231, 1241, 1251, 1261, 1271, 1281, 1291, 1301, 1311, 1321, 1331, 1341]","1081","1920","[960, 960, 960, 960, 960, 960, 960, 960, 960, 960, 960, 960, 960, 960, 960, 960, 960, 960, 960, 959, 957, 956, 951, 949, 946, 944, 936, 933, 929, 927, 922, 918, 915, 911, 903, 897, 891, 884, 877, 875, 873, 870, 863, 859, 852, 843, 827, 821, 818, 815, 807, 801, 794, 787, 766, 754, 744, 737, 727, 721, 716, 710, 693, 680, 661, 644, 616, 610, 605, 602, 596, 593, 589, 585, 572, 562, 553, 547, 539, 534, 533, 529, 522, 516, 507, 492, 465, 453, 443, 433, 419, 412, 406, 397, 380, 366, 356, 350, 340, 336, 334, 333, 328, 324, 322, 314, 299, 291, 282, 276, 266, 265, 265, 265, 264, 262, 261, 257, 242, 236, 232, 230, 230, 230, 230, 230, 229, 229, 229, 228, 228, 228, 228, 228]","[1010, 1010, 1010, 1010, 1010, 1010, 1010, 1010, 1010, 1010, 1010, 1010, 1010, 1010, 1010, 1010, 1010, 1010, 1010, 1009, 1007, 1001, 987, 977, 970, 960, 941, 933, 923, 914, 899, 889, 879, 871, 851, 841, 827, 815, 797, 790, 784, 776, 764, 757, 748, 738, 718, 711, 704, 700, 688, 680, 672, 664, 639, 624, 614, 604, 590, 584, 574, 566, 544, 530, 509, 491, 467, 462, 457, 454, 446, 441, 435, 426, 406, 394, 385, 379, 370, 365, 363, 358, 347, 340, 331, 318, 300, 293, 288, 282, 272, 265, 259, 251, 238, 228, 221, 216, 208, 205, 202, 199, 192, 187, 182, 175, 161, 155, 149, 144, 136, 135, 134, 133, 128, 125, 123, 119, 110, 106, 104, 102, 102, 102, 102, 102, 101, 101, 100, 99, 99, 99, 99, 99]"
"Promise","Wie oft werden Sie die Hälfte zurückgeben?","Promise","0","undefined","11","0","4","60","1080","311","5","2","1217","0","legacy","[11, 21, 31, 41, 51, 61, 71, 81, 91, 101, 111, 121, 131, 141, 151, 161, 171, 181, 191, 201, 211, 221, 231, 241, 251, 261, 271, 281, 291, 301, 311, 321, 331, 341, 351, 361, 371, 381, 391, 401, 411, 421, 431, 441, 451, 461, 471, 481, 491, 501, 511, 521, 531, 541, 551, 561, 571, 581, 591, 601, 611, 621, 631, 641, 651, 661, 671, 681, 691, 701, 711, 721, 731, 741, 751, 761, 771, 781, 791, 801, 811, 821, 831, 841, 851, 861, 871, 881, 891, 901, 911, 921, 931, 941, 951, 961, 971, 981, 991, 1001, 1011, 1021, 1031, 1041, 1051, 1061, 1071, 1081, 1091, 1101, 1111, 1121, 1131, 1141, 1151, 1161, 1171, 1181, 1191, 1201, 1211]","1081","1920","[960, 960, 960, 960, 960, 960, 960, 960, 960, 960, 960, 960, 960, 960, 960, 960, 960, 960, 960, 960, 960, 960, 960, 960, 962, 965, 968, 971, 978, 983, 989, 991, 995, 997, 999, 1001, 1009, 1012, 1016, 1021, 1025, 1027, 1028, 1031, 1039, 1043, 1048, 1053, 1060, 1065, 1069, 1075, 1091, 1101, 1115, 1125, 1145, 1152, 1160, 1168, 1180, 1186, 1195, 1202, 1220, 1236, 1253, 1278, 1318, 1334, 1347, 1361, 1374, 1381, 1388, 1395, 1413, 1425, 1439, 1453, 1487, 1512, 1539, 1563, 1617, 1639, 1656, 1673, 1700, 1717, 1732, 1748, 1777, 1787, 1796, 1800, 1805, 1805, 1805, 1805, 1805, 1805, 1805, 1805, 1805, 1805, 1805, 1805, 1805, 1805, 1805, 1805, 1805, 1805, 1805, 1805, 1805, 1805, 1805, 1805, 1805]","[1010, 1010, 1010, 1010, 1010, 1010, 1010, 1010, 1010, 1010, 1010, 1010, 1010, 1010, 1010, 1010, 1010, 1010, 1010, 1010, 1006, 1003, 1002, 999, 990, 985, 979, 973, 958, 948, 937, 926, 910, 904, 898, 890, 873, 864, 855, 844, 819, 806, 795, 785, 765, 758, 749, 741, 723, 715, 703, 693, 670, 658, 642, 632, 613, 604, 596, 587, 572, 566, 558, 551, 533, 520, 505, 488, 461, 453, 446, 436, 419, 410, 399, 387, 360, 343, 326, 312, 287, 272, 258, 244, 215, 203, 190, 177, 155, 144, 133, 124, 107, 103, 97, 93, 86, 82, 78, 75, 70, 68, 66, 64, 60, 59, 58, 58, 57, 57, 57, 57, 57, 57, 57, 57, 57, 57, 57, 57, 57]"
"Trust","Teilnehmer A hat Ihnen 2 Punkte übermittelt.","Payback","1","undefined","12","0","4","60","1080","271","5","1","1406","0","legacy","[11, 21, 31, 41, 51, 61, 71, 81, 91, 101, 111, 121, 131, 141, 151, 161, 171, 181, 191, 201, 211, 221, 231, 241, 251, 261, 271, 281, 291, 301, 311, 321, 331, 341, 351, 361, 371, 381, 391, 401, 411, 421, 431, 441, 451, 461, 471, 481, 491, 501, 511, 521, 531, 541, 551, 561, 571, 581, 591, 601, 611, 621, 631, 641, 651, 661, 671, 681, 691, 701, 711, 721, 731, 741, 751, 761, 771, 781, 791, 801, 811, 821, 831, 841, 851, 861, 871, 881, 891, 901, 911, 921, 931, 941, 951, 961, 971, 981, 991, 1001, 1011, 1021, 1031, 1041, 1051, 1061, 1071, 1081, 1091, 1101, 1111, 1121, 1131, 1141, 1151, 1161, 1171, 1181, 1191, 1201, 1211, 1221, 1231, 1241, 1251, 1261, 1271, 1281, 1291, 1301, 1311, 1321, 1331, 1341, 1351, 1361, 1371, 1381, 1391, 1401]","1081","1920","[960, 960, 960, 960, 960, 960, 960, 960, 960, 960, 960, 960, 960, 960, 960, 960, 960, 960, 960, 960, 960, 960, 960, 960, 960, 960, 955, 954, 952, 949, 948, 947, 946, 944, 938, 931, 923, 915, 898, 892, 886, 879, 865, 858, 846, 838, 824, 817, 810, 804, 786, 778, 771, 759, 742, 728, 719, 712, 701, 694, 689, 680, 662, 646, 625, 606, 584, 577, 571, 566, 561, 555, 550, 540, 500, 475, 457, 447, 427, 418, 409, 401, 387, 377, 365, 352, 336, 329, 323, 320, 311, 306, 302, 295, 277, 268, 263, 259, 253, 250, 247, 243, 234, 228, 222, 215, 202, 198, 195, 192, 190, 188, 188, 186, 184, 183, 183, 181, 181, 181, 181, 181, 180, 180, 180, 180, 180, 180, 180, 180, 180, 180, 180, 180, 180, 180, 180, 180, 180, 180]","[1010, 1010, 1010, 1010, 1010, 1010, 1010, 1010, 1010, 1010, 1010, 1010, 1010, 1010, 1010, 1010, 1010, 1010, 1009, 1004, 1001, 997, 988, 981, 975, 964, 936, 918, 904, 893, 878, 871, 862, 857, 841, 829, 818, 807, 789, 777, 764, 751, 726, 716, 700, 689, 667, 657, 649, 639, 619, 607, 598, 584, 562, 547, 537, 530, 518, 510, 504, 495, 475, 462, 447, 433, 418, 414, 409, 405, 401, 398, 393, 382, 357, 342, 334, 328, 320, 316, 313, 309, 300, 292, 284, 277, 268, 263, 259, 258, 250, 246, 242, 236, 221, 214, 207, 201, 192, 187, 181, 176, 162, 155, 147, 138, 122, 117, 114, 108, 103, 99, 97, 93, 91, 90, 89, 88, 87, 87, 86, 86, 86, 86, 86, 86, 86, 86, 86, 86, 86, 86, 86, 86, 86, 86, 86, 86, 86, 86]"
"Trust","Teilnehmer A hat Ihnen 2 Punkte übermittelt.","Payback","1","undefined","13","0","4","60","1080","281","5","1","1358","0","legacy","[11, 21, 31, 41, 51, 61, 71, 81, 91, 101, 111, 121, 131, 141, 151, 161, 171, 181, 191, 201, 211, 221, 231, 241, 251, 261, 271, 281, 291, 301, 311, 321, 331, 341, 351, 361, 371, 381, 391, 401, 411, 421, 431, 441, 451, 461, 471, 481, 491, 501, 511, 521, 531, 541, 551, 561, 571, 581, 591, 601, 611, 621, 631, 641, 651, 661, 671, 681, 691, 701, 711, 721, 731, 741, 751, 761, 771, 781, 791, 801, 811, 821, 831, 841, 851, 861, 871, 881, 891, 901, 911, 921, 931, 941, 951, 961, 971, 981, 991, 1001, 1011, 1021, 1031, 1041, 1051, 1061, 1071, 1081, 1091, 1101, 1111, 1121, 1131, 1141, 1151, 1161, 1171, 1181, 1191, 1201, 1211, 1221, 1231, 1241, 1251, 1261, 1271, 1281, 1291, 1301, 1311, 1321, 1331, 1341, 1351]","1081","1920","[960, 960, 960, 960, 960, 960, 960, 960, 960, 960, 960, 960, 960, 960, 960, 960, 960, 960, 960, 960, 960, 960, 960, 956, 953, 950, 940, 933, 927, 921, 908, 904, 894, 880, 855, 840, 829, 818, 804, 796, 788, 782, 767, 761, 747, 734, 705, 693, 683, 669, 639, 626, 616, 609, 590, 578, 568, 558, 547, 542, 538, 533, 521, 514, 505, 495, 469, 458, 447, 439, 427, 424, 421, 417, 405, 395, 385, 372, 348, 333, 318, 305, 285, 277, 268, 262, 253, 248, 246, 243, 238, 235, 232, 229, 223, 218, 217, 216, 214, 212, 212, 212, 211, 211, 211, 210, 210, 210, 210, 210, 210, 210, 210, 210, 210, 210, 210, 210, 210, 210, 210, 210, 210, 210, 210, 210, 210, 210, 210, 210, 210, 210, 210, 210, 210]","[1010, 1010, 1010, 1010, 1010, 1010, 1010, 1010, 1010, 1010, 1010, 1010, 1010, 1010, 1010, 1010, 1010, 1010, 1010, 1010, 1010, 1010, 1008, 1002, 995, 986, 945, 923, 900, 881, 838, 817, 791, 762, 704, 679, 655, 641, 614, 603, 593, 584, 561, 550, 532, 515, 487, 478, 470, 460, 434, 420, 408, 397, 375, 362, 353, 346, 340, 336, 332, 324, 309, 299, 290, 281, 263, 257, 252, 248, 241, 240, 236, 229, 216, 207, 199, 192, 182, 175, 169, 162, 148, 142, 135, 130, 123, 119, 118, 114, 110, 106, 102, 100, 94, 92, 91, 90, 89, 88, 87, 87, 86, 86, 86, 86, 86, 86, 86, 86, 86, 86, 86, 86, 86, 86, 86, 86, 86, 86, 86, 86, 86, 86, 86, 86, 86, 86, 86, 86, 86, 86, 86, 86, 86]"
"Trust","Teilnehmer A hat Ihnen 2 Punkte übermittelt.","Payback","1","undefined","14","0","4","60","1080","241","5","1","1356","0","legacy","[11, 21, 31, 41, 51, 61, 71, 81, 91, 101, 111, 121, 131, 141, 151, 161, 171, 181, 191, 201, 211, 221, 231, 241, 251, 261, 271, 281, 291, 301, 311, 321, 331, 341, 351, 361, 371, 381, 391, 401, 411, 421, 431, 441, 451, 461, 471, 481, 491, 501, 511, 521, 531, 541, 551, 561, 571, 581, 591, 601, 611, 621, 631, 641, 651, 661, 671, 681, 691, 701, 711, 721, 731, 741, 751, 761, 771, 781, 791, 801, 811, 821, 831, 841, 851, 861, 871, 881, 891, 901, 911, 921, 931, 941, 951, 961, 971, 981, 991, 1001, 1011, 1021, 1031, 1041, 1051, 1061, 1071, 1081, 1091, 1101, 1111, 1121, 1131, 1141, 1151, 1161, 1171, 1181, 1191, 1201, 1211, 1221, 1231, 1241, 1251, 1261, 1271, 1281, 1291, 1301, 1311, 1321, 1331, 1341, 1351]","1081","1920","[960, 960, 960, 960, 960, 960, 960, 960, 960, 960, 960, 960, 960, 960, 960, 960, 963, 973, 977, 981, 982, 986, 986, 987, 987, 987, 981, 978, 972, 964, 962, 961, 961, 961, 961, 961, 961, 952, 944, 937, 928, 910, 906, 902, 897, 888, 881, 870, 861, 844, 837, 830, 825, 814, 809, 801, 789, 754, 738, 723, 708, 691, 680, 667, 652, 607, 579, 554, 533, 511, 507, 505, 502, 497, 488, 483, 475, 453, 448, 445, 444, 444, 443, 438, 431, 403, 377, 350, 325, 295, 288, 287, 286, 286, 286, 285, 284, 280, 279, 275, 273, 272, 271, 271, 271, 269, 268, 267, 264, 256, 250, 244, 236, 227, 225, 222, 221, 221, 220, 219, 219, 218, 216, 216, 215, 214, 214, 214, 214, 214, 214, 214, 214, 214, 214]","[1010, 1010, 1010, 1010, 1010, 1010, 1010, 1010, 1010, 1010, 1010, 1010, 1010, 1008, 1004, 998, 992, 979, 974, 968, 965, 953, 945, 935, 924, 881, 849, 814, 790, 754, 745, 735, 725, 712, 703, 695, 686, 666, 654, 644, 631, 611, 605, 600, 594, 580, 570, 560, 549, 530, 522, 515, 507, 496, 490, 482, 470, 435, 419, 407, 395, 383, 376, 366, 355, 323, 304, 287, 275, 263, 260, 259, 258, 254, 251, 245, 238, 221, 217, 215, 214, 214, 213, 211, 210, 201, 193, 187, 179, 172, 168, 168, 168, 168, 168, 167, 166, 162, 161, 158, 157, 157, 156, 155, 154, 151, 149, 147, 143, 133, 128, 124, 121, 115, 114, 111, 110, 107, 106, 105, 104, 103, 102, 101, 100, 100, 100, 100, 100, 100, 100, 100, 100, 100, 100]"
"Promise","Wie oft werden Sie die Hälfte zurückgeben?","Promise","0","undefined","14","0","5","60","1080","391","5","2","1792","0","legacy","[11, 21, 31, 41, 51, 61, 71, 82, 91, 101, 111, 121, 131, 141, 151, 161, 171, 181, 191, 201, 211, 221, 231, 241, 251, 261, 271, 281, 291, 301, 311, 321, 331, 341, 351, 361, 371, 381, 391, 401, 411, 421, 431, 441, 451, 461, 471, 481, 491, 501, 511, 521, 531, 541, 551, 561, 571, 581, 591, 601, 611, 621, 631, 641, 651, 661, 671, 681, 691, 701, 711, 721, 731, 741, 751, 761, 771, 781, 791, 801, 811, 821, 831, 841, 851, 861, 871, 881, 891, 901, 911, 921, 931, 941, 951, 961, 971, 981, 991, 1001, 1011, 1021, 1031, 1041, 1051, 1061, 1071, 1081, 1091, 1101, 1111, 1121, 1131, 1141, 1151, 1161, 1171, 1181, 1191, 1201, 1211, 1221, 1231, 1241, 1251, 1261, 1271, 1281, 1291, 1301, 1311, 1321, 1331, 1341, 1351, 1361, 1371, 1381, 1391, 1401, 1411, 1421, 1431, 1441, 1451, 1461, 1471, 1481, 1491, 1501, 1511, 1521, 1531, 1541, 1551, 1561, 1571, 1581, 1591, 1601, 1611, 1621, 1631, 1641, 1651, 1661, 1671, 1681, 1691, 1701, 1711, 1721, 1731, 1741, 1751, 1761, 1771, 1781, 1791]","1081","1920","[960, 960, 960, 960, 960, 960, 960, 960, 960, 960, 960, 960, 960, 960, 960, 960, 960, 960, 960, 960, 960, 960, 960, 960, 960, 960, 960, 961, 961, 961, 962, 965, 966, 969, 971, 972, 975, 976, 980, 990, 992, 994, 997, 1005, 1008, 1013, 1017, 1024, 1028, 1032, 1036, 1041, 1044, 1047, 1050, 1058, 1063, 1068, 1074, 1088, 1094, 1101, 1107, 1123, 1130, 1138, 1148, 1165, 1176, 1183, 1189, 1204, 1210, 1217, 1222, 1234, 1240, 1246, 1255, 1278, 1287, 1295, 1302, 1312, 1316, 1323, 1333, 1351, 1360, 1368, 1375, 1388, 1393, 1397, 1400, 1409, 1414, 1422, 1427, 1439, 1445, 1451, 1458, 1472, 1477, 1485, 1490, 1499, 1503, 1506, 1509, 1519, 1523, 1529, 1536, 1552, 1561, 1570, 1577, 1589, 1593, 1596, 1599, 1607, 1610, 1614, 1618, 1624, 1627, 1628, 1631, 1635, 1636, 1640, 1642, 1648, 1649, 1652, 1654, 1657, 1658, 1660, 1660, 1660, 1662, 1662, 1664, 1666, 1666, 1667, 1668, 1668, 1668, 1668, 1668, 1669, 1669, 1670, 1671, 1671, 1671, 1671, 1671, 1672, 1672, 1672, 1672, 1672, 1672, 1672, 1672, 1672, 1672, 1672, 1672, 1672, 1672, 1672, 1672]","[1010, 1010, 1010, 1010, 1010, 1010, 1010, 1010, 1010, 1010, 1010, 1010, 1010, 1010, 1010, 1010, 1010, 1010, 1010, 1010, 1010, 1010, 1010, 1010, 1010, 1010, 1008, 1005, 1004, 1002, 999, 990, 986, 977, 971, 959, 953, 947, 937, 921, 917, 913, 907, 889, 882, 872, 866, 854, 847, 841, 834, 826, 821, 817, 812, 804, 797, 792, 784, 765, 754, 746, 737, 725, 719, 714, 707, 694, 685, 675, 667, 647, 638, 630, 623, 611, 606, 603, 596, 583, 577, 570, 564, 553, 545, 538, 529, 511, 501, 493, 485, 468, 462, 458, 452, 441, 435, 427, 420, 405, 396, 388, 381, 364, 359, 354, 349, 336, 330, 324, 319, 309, 304, 298, 293, 282, 274, 267, 261, 248, 241, 236, 231, 219, 214, 208, 203, 194, 191, 188, 184, 178, 177, 173, 171, 164, 162, 157, 153, 145, 141, 138, 136, 132, 128, 126, 122, 117, 115, 114, 113, 111, 110, 109, 108, 108, 107, 106, 105, 105, 105, 105, 105, 104, 104, 104, 104, 104, 104, 104, 104, 104, 104, 104, 104, 104, 104, 104, 104]"
"NoTrust","Teilnehmer A hat Ihnen keine 2 Punkte übermittelt.","Payback","0","undefined","15","0","5","60","1080","391","0","2","1792","0","legacy","[11, 21, 31, 41, 51, 61, 71, 82, 91, 101, 111, 121, 131, 141, 151, 161, 171, 181, 191, 201, 211, 221, 231, 241, 251, 261, 271, 281, 291, 301, 311, 321, 331, 341, 351, 361, 371, 381, 391, 401, 411, 421, 431, 441, 451, 461, 471, 481, 491, 501, 511, 521, 531, 541, 551, 561, 571, 581, 591, 601, 611, 621, 631, 641, 651, 661, 671, 681, 691, 701, 711, 721, 731, 741, 751, 761, 771, 781, 791, 801, 811, 821, 831, 841, 851, 861, 871, 881, 891, 901, 911, 921, 931, 941, 951, 961, 971, 981, 991, 1001, 1011, 1021, 1031, 1041, 1051, 1061, 1071, 1081, 1091, 1101, 1111, 1121, 1131, 1141, 1151, 1161, 1171, 1181, 1191, 1201, 1211, 1221, 1231, 1241, 1251, 1261, 1271, 1281, 1291, 1301, 1311, 1321, 1331, 1341, 1351, 1361, 1371, 1381, 1391, 1401, 1411, 1421, 1431, 1441, 1451, 1461, 1471, 1481, 1491, 1501, 1511, 1521, 1531, 1541, 1551, 1561, 1571, 1581, 1591, 1601, 1611, 1621, 1631, 1641, 1651, 1661, 1671, 1681, 1691, 1701, 1711, 1721, 1731, 1741, 1751, 1761, 1771, 1781, 1791]","1081","1920","[960, 960, 960, 960, 960, 960, 960, 960, 960, 960, 960, 960, 960, 960, 960, 960, 960, 960, 960, 960, 960, 960, 960, 960, 960, 960, 960, 961, 961, 961, 962, 965, 966, 969, 971, 972, 975, 976, 980, 990, 992, 994, 997, 1005, 1008, 1013, 1017, 1024, 1028, 1032, 1036, 1041, 1044, 1047, 1050, 1058, 1063, 1068, 1074, 1088, 1094, 1101, 1107, 1123, 1130, 1138, 1148, 1165, 1176, 1183, 1189, 1204, 1210, 1217, 1222, 1234, 1240, 1246, 1255, 1278, 1287, 1295, 1302, 1312, 1316, 1323, 1333, 1351, 1360, 1368, 1375, 1388, 1393, 1397, 1400, 1409, 1414, 1422, 1427, 1439, 1445, 1451, 1458, 1472, 1477, 1485, 1490, 1499, 1503, 1506, 1509, 1519, 1523, 1529, 1536, 1552, 1561, 1570, 1577, 1589, 1593, 1596, 1599, 1607, 1610, 1614, 1618, 1624, 1627, 1628, 1631, 1635, 1636, 1640, 1642, 1648, 1649, 1652, 1654, 1657, 1658, 1660, 1660, 1660, 1662, 1662, 1664, 1666, 1666, 1667, 1668, 1668, 1668, 1668, 1668, 1669, 1669, 1670, 1671, 1671, 1671, 1671, 1671, 1672, 1672, 1672, 1672, 1672, 1672, 1672, 1672, 1672, 1672, 1672, 1672, 1672, 1672, 1672, 1672]","[1010, 1010, 1010, 1010, 1010, 1010, 1010, 1010, 1010, 1010, 1010, 1010, 1010, 1010, 1010, 1010, 1010, 1010, 1010, 1010, 1010, 1010, 1010, 1010, 1010, 1010, 1008, 1005, 1004, 1002, 999, 990, 986, 977, 971, 959, 953, 947, 937, 921, 917, 913, 907, 889, 882, 872, 866, 854, 847, 841, 834, 826, 821, 817, 812, 804, 797, 792, 784, 765, 754, 746, 737, 725, 719, 714, 707, 694, 685, 675, 667, 647, 638, 630, 623, 611, 606, 603, 596, 583, 577, 570, 564, 553, 545, 538, 529, 511, 501, 493, 485, 468, 462, 458, 452, 441, 435, 427, 420, 405, 396, 388, 381, 364, 359, 354, 349, 336, 330, 324, 319, 309, 304, 298, 293, 282, 274, 267, 261, 248, 241, 236, 231, 219, 214, 208, 203, 194, 191, 188, 184, 178, 177, 173, 171, 164, 162, 157, 153, 145, 141, 138, 136, 132, 128, 126, 122, 117, 115, 114, 113, 111, 110, 109, 108, 108, 107, 106, 105, 105, 105, 105, 105, 104, 104, 104, 104, 104, 104, 104, 104, 104, 104, 104, 104, 104, 104, 104, 104]"
"Trust","Teilnehmer A hat Ihnen 2 Punkte übermittelt.","Payback","1","undefined","16","0","5","60","1080","311","5","1","1694","0","legacy","[11, 21, 31, 41, 51, 61, 71, 81, 91, 101, 111, 121, 131, 141, 151, 161, 171, 181, 191, 201, 211, 221, 231, 241, 251, 261, 271, 281, 291, 301, 311, 321, 331, 341, 351, 361, 371, 381, 391, 401, 411, 421, 431, 441, 451, 461, 471, 481, 491, 501, 511, 521, 531, 541, 551, 561, 571, 581, 591, 601, 611, 621, 631, 641, 651, 661, 671, 681, 691, 701, 711, 721, 731, 741, 751, 761, 771, 781, 791, 801, 811, 821, 831, 841, 851, 861, 871, 881, 891, 901, 911, 921, 931, 941, 951, 961, 971, 981, 991, 1001, 1011, 1021, 1031, 1041, 1051, 1061, 1071, 1081, 1091, 1101, 1111, 1121, 1131, 1141, 1151, 1161, 1171, 1181, 1191, 1201, 1211, 1221, 1231, 1241, 1251, 1261, 1271, 1281, 1291, 1301, 1311, 1321, 1331, 1341, 1351, 1361, 1371, 1381, 1391, 1401, 1411, 1421, 1431, 1441, 1451, 1461, 1471, 1481, 1491, 1501, 1511, 1521, 1531, 1541, 1551, 1561, 1571, 1581, 1591, 1601, 1611, 1621, 1631, 1641, 1651, 1661, 1671, 1681, 1691]","1081","1920","[960, 960, 960, 960, 960, 960, 960, 960, 960, 960, 960, 960, 960, 960, 960, 960, 960, 960, 960, 959, 959, 957, 954, 953, 951, 949, 945, 943, 939, 937, 931, 926, 923, 920, 915, 913, 913, 913, 911, 908, 906, 902, 898, 895, 894, 892, 887, 883, 880, 878, 872, 868, 863, 858, 847, 843, 841, 838, 830, 821, 809, 791, 760, 748, 742, 735, 725, 718, 711, 705, 687, 678, 673, 668, 656, 651, 645, 638, 626, 618, 610, 601, 585, 577, 569, 560, 544, 536, 526, 516, 499, 493, 485, 480, 468, 462, 455, 446, 417, 405, 392, 382, 370, 364, 360, 356, 340, 328, 306, 279, 243, 232, 226, 222, 219, 218, 218, 218, 211, 204, 192, 182, 167, 162, 159, 159, 158, 158, 158, 158, 158, 158, 158, 158, 159, 159, 159, 159, 159, 159, 159, 159, 159, 159, 159, 159, 159, 159, 159, 159, 159, 159, 159, 159, 159, 159, 159, 159, 159, 159, 159, 159, 159, 159, 159, 159, 159, 159, 159]","[1010, 1010, 1010, 1010, 1010, 1010, 1010, 1010, 1010, 1010, 1010, 1010, 1010, 1010, 1010, 1010, 1010, 1010, 1005, 1003, 1002, 1000, 994, 992, 989, 985, 975, 966, 956, 946, 929, 920, 914, 908, 896, 892, 890, 887, 881, 876, 871, 866, 856, 852, 848, 842, 828, 822, 816, 810, 800, 795, 789, 783, 769, 763, 758, 751, 736, 723, 710, 691, 665, 655, 649, 641, 629, 619, 610, 600, 578, 567, 561, 555, 541, 533, 525, 516, 496, 485, 474, 465, 454, 445, 437, 427, 405, 394, 382, 367, 351, 344, 339, 334, 319, 310, 303, 297, 271, 263, 256, 251, 239, 233, 228, 219, 201, 189, 177, 161, 147, 142, 140, 136, 131, 127, 125, 122, 111, 107, 103, 100, 97, 96, 95, 95, 95, 94, 93, 93, 93, 93, 93, 93, 92, 92, 91, 91, 91, 91, 91, 91, 91, 91, 91, 91, 91, 91, 91, 91, 91, 91, 91, 91, 91, 91, 91, 91, 91, 91, 91, 91, 91, 91, 91, 91, 91, 91, 91]"
"Trust","Teilnehmer A hat Ihnen 2 Punkte übermittelt.","Payback","0","undefined","17","0","5","60","1080","481","10","2","2342","0","legacy","[11, 21, 31, 41, 51, 61, 71, 81, 91, 101, 111, 121, 131, 141, 151, 161, 171, 181, 191, 201, 211, 221, 231, 241, 251, 261, 271, 281, 291, 301, 311, 321, 331, 341, 351, 361, 371, 381, 391, 401, 411, 421, 431, 441, 451, 461, 471, 481, 491, 501, 511, 521, 531, 541, 551, 561, 571, 581, 591, 601, 611, 621, 631, 641, 651, 661, 671, 681, 691, 701, 711, 721, 731, 741, 751, 761, 771, 781, 791, 801, 811, 821, 831, 841, 851, 861, 871, 881, 891, 901, 911, 921, 931, 941, 951, 961, 971, 981, 991, 1001, 1011, 1021, 1031, 1041, 1051, 1061, 1071, 1081, 1091, 1101, 1111, 1121, 1131, 1141, 1151, 1161, 1171, 1181, 1191, 1201, 1211, 1221, 1231, 1241, 1251, 1261, 1271, 1281, 1291, 1301, 1311, 1321, 1331, 1341, 1351, 1361, 1371, 1381, 1391, 1401, 1411, 1421, 1431, 1441, 1451, 1461, 1471, 1481, 1491, 1501, 1511, 1521, 1531, 1541, 1551, 1561, 1571, 1581, 1591, 1601, 1611, 1621, 1631, 1641, 1651, 1661, 1671, 1681, 1691, 1701, 1711, 1721, 1731, 1741, 1751, 1761, 1771, 1781, 1791, 1801, 1811, 1821, 1831, 1841, 1851, 1861, 1871, 1881, 1891, 1901, 1911, 1921, 1931, 1941, 1951, 1961, 1971, 1981, 1991, 2001, 2011, 2021, 2031, 2041, 2051, 2061, 2071, 2081, 2091, 2101, 2111, 2121, 2131, 2141, 2151, 2161, 2171, 2181, 2191, 2201, 2211, 2221, 2231, 2241, 2251, 2261, 2271, 2281, 2291, 2301, 2311, 2321, 2331, 2341]","1081","1920","[960, 960, 960, 960, 960, 960, 960, 960, 960, 960, 960, 960, 960, 960, 960, 960, 960, 960, 960, 960, 960, 960, 960, 960, 960, 960, 960, 960, 960, 960, 960, 960, 960, 960, 960, 960, 960, 960, 960, 960, 960, 960, 960, 960, 961, 964, 970, 972, 974, 975, 975, 975, 975, 975, 980, 986, 993, 1001, 1019, 1027, 1036, 1043, 1055, 1063, 1070, 1076, 1087, 1096, 1105, 1115, 1129, 1132, 1134, 1137, 1146, 1152, 1160, 1166, 1175, 1176, 1176, 1176, 1176, 1176, 1176, 1176, 1176, 1176, 1176, 1176, 1176, 1176, 1176, 1176, 1176, 1176, 1176, 1176, 1176, 1175, 1174, 1172, 1169, 1168, 1166, 1165, 1163, 1163, 1162, 1162, 1162, 1162, 1162, 1162, 1162, 1162, 1162, 1162, 1162, 1162, 1162, 1162, 1162, 1162, 1162, 1162, 1162, 1162, 1162, 1162, 1162, 1162, 1162, 1162, 1162, 1162, 1162, 1162, 1162, 1162, 1162, 1162, 1162, 1163, 1177, 1193, 1207, 1210, 1213, 1218, 1240, 1264, 1288, 1311, 1356, 1375, 1390, 1408, 1439, 1449, 1456, 1460, 1468, 1474, 1480, 1485, 1496, 1501, 1506, 1508, 1513, 1515, 1518, 1520, 1527, 1532, 1536, 1543, 1554, 1559, 1562, 1567, 1571, 1575, 1578, 1581, 1591, 1596, 1600, 1606, 1621, 1630, 1639, 1647, 1658, 1659, 1661, 1663, 1665, 1667, 1670, 1674, 1686, 1691, 1694, 1697, 1700, 1701, 1702, 1704, 1704, 1705, 1705, 1705, 1705, 1705, 1705, 1705, 1705, 1705, 1705, 1705, 1705, 1705, 1705, 1705, 1705, 1705, 1705, 1705, 1705, 1705, 1705, 1705]","[1010, 1010, 1010, 1010, 1010, 1010, 1010, 1010, 1010, 1010, 1010, 1010, 1010, 1010, 1010, 1010, 1010, 1010, 1010, 1010, 1010, 1010, 1010, 1010, 1010, 1010, 1010, 1010, 1010, 1010, 1010, 1010, 1010, 1008, 1001, 998, 996, 994, 989, 986, 984, 981, 974, 971, 968, 960, 945, 937, 930, 927, 918, 911, 903, 894, 873, 862, 851, 839, 814, 802, 792, 782, 764, 754, 745, 736, 715, 706, 693, 680, 660, 655, 651, 643, 626, 618, 609, 603, 589, 588, 586, 585, 582, 582, 582, 582, 582, 582, 582, 582, 582, 582, 582, 582, 582, 582, 581, 581, 581, 581, 581, 581, 581, 581, 581, 581, 581, 581, 581, 581, 581, 581, 581, 581, 581, 581, 581, 581, 581, 581, 581, 581, 581, 581, 581, 581, 581, 581, 581, 581, 581, 581, 581, 581, 581, 581, 581, 581, 581, 581, 581, 581, 581, 581, 579, 569, 556, 548, 541, 530, 501, 476, 456, 438, 406, 394, 382, 367, 339, 329, 319, 307, 272, 250, 231, 214, 195, 189, 185, 184, 180, 180, 178, 177, 174, 172, 171, 168, 162, 159, 158, 155, 153, 151, 150, 149, 144, 141, 139, 135, 125, 123, 119, 115, 111, 109, 109, 107, 103, 102, 101, 99, 94, 92, 90, 88, 86, 86, 86, 85, 85, 84, 84, 84, 84, 84, 84, 84, 84, 84, 84, 84, 84, 84, 84, 84, 84, 84, 84, 84, 84, 84, 84, 84]"
"Promise","Wie oft werden Sie die Hälfte zurückgeben?","Promise","0","undefined","17","0","6","60","1080","381","10","2","1630","0","legacy","[11, 21, 31, 41, 51, 61, 71, 81, 91, 101, 111, 121, 131, 141, 151, 161, 171, 181, 191, 201, 211, 221, 231, 241, 251, 261, 271, 281, 291, 301, 311, 321, 331, 341, 351, 361, 371, 381, 391, 401, 411, 421, 431, 441, 451, 461, 471, 481, 491, 501, 511, 521, 531, 541, 551, 561, 571, 581, 591, 601, 611, 621, 631, 641, 651, 661, 671, 681, 691, 701, 711, 721, 731, 741, 751, 761, 771, 781, 791, 801, 811, 821, 831, 841, 851, 861, 871, 881, 891, 901, 911, 921, 931, 941, 951, 961, 971, 981, 991, 1001, 1011, 1021, 1031, 1041, 1051, 1061, 1071, 1081, 1091, 1101, 1111, 1121, 1131, 1141, 1151, 1161, 1171, 1181, 1191, 1201, 1211, 1221, 1231, 1241, 1251, 1261, 1271, 1281, 1291, 1301, 1311, 1321, 1331, 1341, 1351, 1361, 1371, 1381, 1391, 1401, 1411, 1421, 1431, 1441, 1451, 1461, 1471, 1481, 1491, 1501, 1511, 1521, 1531, 1541, 1551, 1561, 1571, 1581, 1591, 1601, 1611, 1621]","1081","1920","[960, 960, 960, 960, 960, 960, 960, 960, 960, 960, 960, 960, 960, 960, 960, 960, 960, 960, 960, 960, 960, 959, 958, 958, 958, 958, 957, 957, 956, 956, 956, 956, 956, 958, 963, 964, 967, 968, 970, 973, 975, 978, 986, 990, 994, 1001, 1009, 1011, 1016, 1018, 1025, 1032, 1040, 1049, 1069, 1079, 1088, 1095, 1107, 1117, 1126, 1142, 1168, 1178, 1186, 1194, 1209, 1217, 1223, 1231, 1245, 1258, 1265, 1277, 1300, 1312, 1321, 1329, 1341, 1348, 1354, 1362, 1379, 1388, 1394, 1403, 1415, 1420, 1424, 1427, 1434, 1437, 1441, 1445, 1455, 1458, 1465, 1474, 1489, 1495, 1501, 1503, 1508, 1511, 1514, 1518, 1530, 1540, 1547, 1558, 1573, 1580, 1588, 1595, 1605, 1608, 1608, 1610, 1612, 1613, 1616, 1618, 1627, 1633, 1641, 1646, 1652, 1654, 1655, 1656, 1657, 1659, 1659, 1660, 1664, 1664, 1665, 1665, 1666, 1666, 1667, 1667, 1670, 1671, 1671, 1672, 1672, 1672, 1672, 1672, 1672, 1672, 1672, 1672, 1672, 1672, 1672, 1672, 1672, 1672, 1672, 1672]","[1010, 1010, 1010, 1010, 1010, 1010, 1010, 1010, 1010, 1010, 1010, 1010, 1010, 1010, 1010, 1010, 1010, 1010, 1010, 1010, 1010, 1010, 1009, 1007, 1005, 1005, 1001, 997, 991, 987, 979, 976, 971, 967, 955, 950, 943, 937, 922, 914, 906, 900, 885, 879, 870, 863, 848, 841, 832, 823, 809, 800, 788, 778, 756, 747, 738, 729, 714, 700, 690, 675, 653, 644, 636, 629, 613, 605, 597, 588, 573, 562, 554, 545, 524, 514, 507, 499, 486, 480, 473, 465, 448, 439, 433, 424, 410, 404, 399, 394, 384, 377, 371, 363, 349, 346, 339, 334, 320, 312, 302, 295, 279, 273, 269, 263, 253, 246, 240, 232, 220, 214, 210, 206, 201, 200, 199, 197, 191, 189, 185, 182, 175, 171, 166, 164, 158, 152, 147, 140, 132, 129, 126, 123, 118, 117, 116, 116, 115, 114, 111, 109, 104, 101, 101, 100, 100, 100, 100, 100, 100, 100, 100, 100, 100, 100, 100, 100, 100, 100, 100, 100]"
"Trust","Teilnehmer A hat Ihnen 2 Punkte übermittelt.","Payback","1","undefined","18","0","6","60","1080","401","5","1","1364","0","legacy","[11, 21, 31, 41, 51, 61, 71, 81, 91, 101, 111, 121, 131, 141, 151, 161, 171, 181, 191, 201, 211, 221, 231, 241, 251, 261, 271, 281, 291, 301, 311, 321, 331, 341, 351, 361, 371, 381, 391, 401, 411, 421, 431, 441, 451, 461, 471, 481, 491, 501, 511, 521, 531, 541, 551, 561, 571, 581, 591, 601, 611, 621, 631, 641, 651, 661, 671, 681, 691, 701, 711, 721, 731, 741, 751, 761, 771, 781, 791, 801, 811, 821, 831, 841, 851, 861, 871, 881, 891, 901, 911, 921, 931, 941, 951, 961, 971, 981, 991, 1001, 1011, 1021, 1031, 1041, 1051, 1061, 1071, 1081, 1091, 1101, 1111, 1121, 1131, 1141, 1151, 1161, 1171, 1181, 1191, 1201, 1211, 1221, 1231, 1241, 1251, 1261, 1271, 1281, 1291, 1301, 1311, 1321, 1331, 1341, 1351, 1361]","1081","1920","[960, 960, 960, 960, 960, 960, 960, 960, 960, 960, 960, 960, 960, 960, 960, 960, 960, 960, 960, 960, 960, 960, 960, 960, 960, 960, 960, 960, 960, 961, 961, 961, 961, 961, 961, 961, 961, 961, 960, 958, 957, 953, 953, 953, 952, 949, 944, 941, 935, 924, 918, 914, 912, 909, 906, 903, 900, 892, 885, 880, 872, 864, 861, 859, 858, 851, 848, 844, 837, 811, 785, 764, 749, 735, 730, 724, 720, 708, 697, 681, 657, 586, 561, 538, 526, 509, 501, 494, 487, 464, 448, 420, 398, 377, 374, 371, 368, 363, 362, 359, 355, 335, 322, 309, 299, 288, 284, 283, 282, 276, 270, 261, 246, 227, 225, 222, 221, 221, 221, 218, 217, 209, 205, 204, 204, 204, 204, 204, 204, 204, 204, 204, 204, 204, 204, 204]","[1010, 1010, 1010, 1010, 1010, 1010, 1010, 1010, 1010, 1010, 1010, 1010, 1010, 1010, 1010, 1010, 1010, 1010, 1010, 1010, 1010, 1010, 1010, 1010, 1010, 1010, 1009, 1006, 1003, 997, 993, 986, 979, 969, 966, 963, 961, 950, 943, 932, 926, 912, 907, 902, 896, 882, 871, 862, 852, 832, 823, 816, 810, 799, 793, 786, 777, 755, 740, 730, 717, 699, 692, 685, 678, 662, 653, 643, 632, 595, 575, 555, 541, 530, 525, 517, 511, 494, 482, 467, 442, 380, 364, 346, 336, 322, 314, 306, 297, 270, 254, 237, 223, 211, 210, 207, 206, 201, 199, 194, 189, 175, 167, 163, 160, 155, 151, 150, 148, 141, 135, 129, 122, 111, 110, 108, 108, 107, 107, 104, 103, 97, 94, 92, 92, 92, 92, 92, 92, 92, 92, 92, 92, 92, 92, 92]"
"Trust","Teilnehmer A hat Ihnen 2 Punkte übermittelt.","Payback","1","undefined","19","0","6","60","1080","431","5","1","1348","0","legacy","[11, 21, 31, 41, 51, 61, 71, 81, 91, 101, 111, 121, 131, 141, 151, 161, 171, 181, 191, 201, 211, 221, 231, 241, 251, 261, 271, 281, 291, 301, 311, 321, 331, 341, 351, 361, 371, 381, 391, 401, 411, 421, 431, 441, 451, 461, 471, 481, 491, 501, 511, 521, 531, 541, 551, 561, 571, 581, 591, 601, 611, 621, 631, 641, 651, 661, 671, 681, 691, 701, 711, 721, 731, 741, 751, 761, 771, 781, 791, 801, 811, 821, 831, 841, 851, 861, 871, 881, 891, 901, 911, 921, 931, 941, 951, 961, 971, 981, 991, 1001, 1011, 1021, 1031, 1041, 1051, 1061, 1071, 1081, 1091, 1101, 1111, 1121, 1131, 1141, 1151, 1161, 1171, 1181, 1191, 1201, 1211, 1221, 1231, 1241, 1251, 1261, 1271, 1281, 1291, 1301, 1311, 1321, 1331, 1341]","1081","1920","[960, 960, 960, 960, 960, 960, 960, 960, 960, 960, 960, 960, 960, 960, 960, 960, 960, 960, 960, 960, 960, 960, 960, 960, 960, 960, 960, 960, 960, 960, 960, 960, 960, 960, 960, 960, 961, 962, 962, 962, 962, 962, 962, 962, 962, 962, 962, 962, 962, 960, 955, 952, 946, 938, 933, 930, 925, 920, 917, 913, 908, 896, 885, 872, 859, 838, 831, 824, 819, 808, 802, 797, 789, 766, 750, 736, 728, 714, 708, 704, 700, 683, 667, 641, 614, 564, 544, 530, 516, 494, 478, 462, 443, 392, 365, 340, 319, 285, 275, 267, 261, 250, 246, 243, 238, 228, 223, 218, 218, 215, 215, 213, 209, 192, 180, 174, 171, 171, 171, 171, 171, 171, 171, 171, 171, 171, 171, 171, 171, 171, 171, 171, 171, 171]","[1010, 1010, 1010, 1010, 1010, 1010, 1010, 1010, 1010, 1010, 1010, 1010, 1010, 1010, 1010, 1010, 1010, 1010, 1010, 1010, 1010, 1010, 1010, 1010, 1010, 1010, 1010, 1010, 1010, 1010, 1010, 1010, 1010, 1010, 1007, 1003, 997, 980, 973, 968, 959, 940, 931, 920, 909, 883, 871, 859, 845, 823, 809, 798, 783, 760, 747, 736, 723, 701, 688, 677, 666, 636, 615, 598, 578, 545, 533, 522, 513, 493, 486, 475, 465, 440, 424, 414, 407, 395, 389, 384, 378, 359, 343, 324, 305, 275, 267, 259, 250, 238, 229, 220, 209, 181, 168, 158, 151, 139, 134, 131, 127, 120, 117, 116, 111, 103, 100, 96, 96, 95, 94, 93, 91, 82, 78, 75, 74, 74, 74, 74, 74, 74, 74, 74, 74, 74, 74, 74, 74, 74, 74, 74, 74, 74]"
"Trust","Teilnehmer A hat Ihnen 2 Punkte übermittelt.","Payback","1","undefined","20","0","6","60","1080","421","5","1","1708","0","legacy","[11, 21, 31, 41, 51, 61, 71, 81, 91, 101, 111, 121, 131, 141, 151, 161, 171, 181, 191, 201, 211, 221, 231, 241, 251, 261, 271, 281, 291, 301, 311, 321, 331, 341, 351, 361, 371, 381, 391, 401, 411, 421, 431, 441, 451, 461, 471, 481, 491, 501, 511, 521, 531, 541, 551, 561, 571, 581, 591, 601, 611, 621, 631, 641, 651, 661, 671, 681, 691, 701, 711, 721, 731, 741, 751, 761, 771, 781, 791, 801, 811, 821, 831, 841, 851, 861, 871, 881, 891, 901, 911, 921, 931, 941, 951, 961, 971, 981, 991, 1001, 1011, 1021, 1031, 1041, 1051, 1061, 1071, 1081, 1091, 1101, 1111, 1121, 1131, 1141, 1151, 1161, 1171, 1181, 1191, 1201, 1211, 1221, 1231, 1241, 1251, 1261, 1271, 1281, 1291, 1301, 1311, 1321, 1331, 1341, 1351, 1361, 1371, 1381, 1391, 1401, 1411, 1421, 1431, 1441, 1451, 1461, 1471, 1481, 1491, 1501, 1511, 1521, 1531, 1541, 1551, 1561, 1571, 1581, 1591, 1601, 1611, 1621, 1631, 1641, 1651, 1661, 1671, 1681, 1691, 1701]","1081","1920","[960, 960, 960, 960, 960, 960, 960, 960, 960, 960, 960, 960, 960, 960, 960, 960, 960, 960, 960, 960, 960, 960, 960, 960, 960, 960, 960, 960, 960, 960, 960, 960, 960, 959, 959, 957, 955, 955, 955, 953, 952, 950, 949, 948, 947, 946, 946, 946, 945, 945, 945, 943, 943, 941, 939, 937, 935, 932, 931, 930, 930, 928, 927, 926, 923, 915, 910, 902, 896, 885, 882, 880, 876, 870, 866, 863, 859, 849, 842, 833, 823, 807, 802, 797, 793, 782, 777, 771, 764, 745, 732, 720, 705, 660, 635, 605, 578, 534, 523, 509, 499, 474, 454, 429, 398, 326, 314, 304, 299, 294, 291, 290, 288, 285, 284, 282, 277, 271, 268, 268, 268, 268, 266, 266, 265, 256, 247, 237, 223, 197, 186, 176, 167, 155, 149, 146, 143, 140, 139, 138, 138, 138, 138, 138, 138, 138, 138, 138, 138, 138, 138, 138, 138, 138, 138, 138, 138, 138, 138, 138, 138, 138, 138, 138, 138, 138, 138, 138, 138, 138]","[1010, 1010, 1010, 1010, 1010, 1010, 1010, 1010, 1010, 1010, 1010, 1010, 1010, 1010, 1010, 1010, 1010, 1010, 1010, 1010, 1010, 1010, 1010, 1010, 1010, 1010, 1010, 1010, 1010, 1003, 1000, 996, 993, 988, 985, 981, 976, 968, 963, 957, 949, 936, 929, 926, 920, 910, 901, 891, 884, 872, 866, 858, 851, 833, 824, 818, 814, 803, 796, 789, 785, 772, 767, 757, 750, 728, 717, 704, 692, 672, 666, 660, 651, 640, 633, 627, 619, 608, 600, 591, 582, 563, 557, 548, 542, 524, 516, 504, 495, 474, 463, 453, 441, 411, 394, 376, 359, 334, 328, 318, 311, 293, 277, 260, 243, 209, 205, 200, 198, 195, 192, 190, 186, 180, 177, 172, 167, 161, 160, 159, 159, 159, 158, 156, 153, 145, 139, 133, 127, 116, 112, 110, 107, 103, 101, 100, 97, 94, 91, 91, 90, 90, 90, 90, 90, 90, 90, 90, 90, 90, 90, 90, 90, 90, 90, 90, 90, 90, 90, 90, 90, 90, 90, 90, 90, 90, 90, 90, 90, 90]"
"Promise","Wie oft werden Sie die Hälfte zurückgeben?","Promise","0","undefined","20","0","7","60","1080","361","5","2","1295","0","legacy","[11, 21, 31, 41, 51, 61, 71, 81, 91, 101, 111, 121, 131, 141, 151, 161, 171, 181, 191, 201, 211, 221, 231, 241, 251, 261, 271, 281, 291, 301, 311, 321, 331, 341, 351, 361, 371, 381, 391, 401, 411, 421, 431, 441, 451, 461, 471, 481, 491, 501, 511, 521, 531, 541, 551, 561, 571, 581, 591, 601, 611, 621, 631, 641, 651, 661, 671, 681, 691, 701, 711, 721, 731, 741, 751, 761, 771, 781, 791, 801, 811, 821, 831, 841, 851, 861, 871, 881, 891, 901, 911, 921, 931, 941, 951, 961, 971, 981, 991, 1001, 1011, 1021, 1031, 1041, 1051, 1061, 1071, 1081, 1091, 1101, 1111, 1121, 1131, 1141, 1151, 1161, 1171, 1181, 1191, 1201, 1211, 1221, 1231, 1241, 1251, 1261, 1271, 1281, 1291]","1081","1920","[960, 960, 960, 960, 960, 960, 960, 960, 960, 960, 960, 960, 960, 960, 960, 960, 960, 960, 960, 960, 960, 960, 960, 960, 960, 960, 960, 960, 960, 960, 960, 961, 963, 963, 964, 967, 967, 967, 967, 971, 975, 978, 980, 984, 986, 987, 992, 1002, 1008, 1018, 1032, 1060, 1073, 1085, 1097, 1123, 1133, 1140, 1148, 1166, 1175, 1183, 1191, 1203, 1209, 1216, 1225, 1247, 1261, 1273, 1282, 1299, 1307, 1317, 1327, 1347, 1359, 1378, 1395, 1433, 1445, 1458, 1467, 1483, 1491, 1502, 1514, 1537, 1547, 1554, 1562, 1582, 1592, 1602, 1611, 1626, 1632, 1640, 1651, 1673, 1686, 1697, 1706, 1718, 1720, 1724, 1725, 1729, 1730, 1732, 1732, 1733, 1734, 1734, 1736, 1736, 1736, 1736, 1736, 1736, 1736, 1736, 1736, 1736, 1736, 1736, 1736, 1736, 1736]","[1010, 1010, 1010, 1010, 1010, 1010, 1010, 1010, 1010, 1010, 1010, 1010, 1010, 1010, 1010, 1010, 1010, 1010, 1010, 1008, 1007, 1005, 1003, 1000, 998, 996, 993, 985, 978, 972, 966, 956, 951, 945, 940, 920, 908, 897, 884, 860, 848, 837, 831, 810, 801, 790, 780, 753, 742, 726, 707, 672, 658, 643, 629, 597, 582, 569, 556, 530, 519, 510, 504, 490, 480, 471, 459, 436, 425, 415, 407, 391, 383, 375, 367, 353, 344, 334, 323, 299, 292, 282, 275, 265, 258, 250, 244, 233, 226, 220, 214, 203, 197, 193, 188, 176, 170, 165, 158, 146, 139, 134, 130, 122, 120, 117, 116, 113, 112, 112, 110, 107, 107, 105, 104, 103, 103, 103, 103, 103, 103, 103, 103, 103, 103, 103, 103, 103, 103]"
"Trust","Teilnehmer A hat Ihnen 2 Punkte übermittelt.","Payback","1","undefined","21","0","7","60","1080","341","5","1","1492","0","legacy","[11, 21, 31, 41, 51, 61, 71, 81, 91, 101, 111, 121, 131, 141, 151, 161, 171, 181, 191, 201, 211, 221, 231, 241, 251, 261, 271, 281, 291, 301, 311, 321, 331, 341, 351, 361, 371, 381, 391, 401, 411, 421, 431, 441, 451, 461, 471, 481, 491, 501, 511, 521, 531, 541, 551, 561, 571, 581, 591, 601, 611, 621, 631, 641, 651, 661, 671, 681, 691, 701, 711, 721, 731, 741, 751, 761, 771, 781, 791, 801, 811, 821, 831, 841, 851, 861, 871, 881, 891, 901, 911, 921, 931, 941, 951, 961, 971, 981, 991, 1001, 1011, 1021, 1031, 1041, 1051, 1061, 1071, 1081, 1091, 1101, 1111, 1121, 1131, 1141, 1151, 1161, 1171, 1181, 1191, 1201, 1211, 1221, 1231, 1241, 1251, 1261, 1271, 1281, 1291, 1301, 1311, 1321, 1331, 1341, 1351, 1361, 1371, 1381, 1391, 1401, 1411, 1421, 1431, 1441, 1451, 1461, 1471, 1481, 1491]","1081","1920","[960, 960, 960, 960, 960, 960, 960, 960, 960, 960, 960, 960, 960, 960, 960, 960, 960, 960, 960, 960, 960, 959, 957, 954, 952, 947, 944, 940, 939, 934, 932, 928, 921, 904, 895, 889, 881, 870, 865, 860, 854, 844, 841, 835, 831, 819, 813, 805, 799, 786, 779, 772, 762, 740, 729, 719, 712, 700, 692, 684, 670, 642, 626, 603, 583, 553, 538, 527, 516, 502, 494, 490, 482, 466, 452, 437, 413, 369, 348, 336, 330, 322, 319, 314, 310, 301, 291, 283, 274, 254, 245, 238, 233, 229, 228, 228, 227, 225, 224, 222, 219, 215, 211, 209, 206, 203, 202, 199, 199, 197, 197, 196, 196, 196, 196, 195, 195, 192, 191, 190, 190, 189, 189, 189, 189, 188, 188, 188, 188, 187, 187, 187, 187, 187, 187, 187, 187, 187, 187, 187, 187, 187, 187, 187, 187, 187, 187, 187, 187]","[1010, 1010, 1010, 1010, 1010, 1010, 1010, 1010, 1010, 1010, 1010, 1010, 1010, 1010, 1010, 1010, 1010, 1010, 1010, 1010, 1010, 1011, 1009, 1004, 1000, 991, 987, 982, 981, 974, 971, 962, 953, 936, 927, 922, 915, 903, 898, 892, 883, 872, 867, 861, 854, 839, 832, 824, 816, 804, 796, 786, 775, 745, 730, 716, 703, 682, 672, 661, 646, 616, 602, 583, 568, 543, 529, 521, 511, 493, 484, 477, 468, 447, 432, 420, 398, 360, 343, 333, 324, 313, 307, 300, 293, 282, 272, 263, 253, 227, 217, 208, 200, 192, 190, 189, 187, 184, 182, 177, 174, 166, 159, 156, 152, 148, 146, 143, 142, 140, 139, 136, 136, 133, 131, 130, 129, 125, 123, 122, 122, 120, 120, 119, 119, 117, 117, 115, 114, 113, 113, 113, 113, 113, 113, 113, 113, 113, 113, 113, 113, 113, 113, 113, 113, 113, 113, 113, 113]"
"Trust","Teilnehmer A hat Ihnen 2 Punkte übermittelt.","Payback","1","undefined","22","0","7","60","1080","311","5","1","1708","0","legacy","[11, 21, 31, 41, 51, 61, 71, 81, 91, 101, 111, 121, 131, 141, 151, 161, 171, 181, 191, 201, 211, 221, 231, 241, 251, 261, 271, 281, 291, 301, 311, 321, 331, 341, 351, 361, 371, 381, 391, 401, 411, 421, 431, 441, 451, 461, 471, 481, 491, 501, 511, 521, 531, 541, 551, 561, 571, 581, 591, 601, 611, 621, 631, 641, 651, 661, 671, 681, 691, 701, 711, 721, 731, 741, 751, 761, 771, 781, 791, 801, 811, 821, 831, 841, 851, 861, 871, 881, 891, 901, 911, 921, 931, 941, 951, 961, 971, 981, 991, 1001, 1011, 1021, 1031, 1041, 1051, 1061, 1071, 1081, 1091, 1101, 1111, 1121, 1131, 1141, 1151, 1161, 1171, 1181, 1191, 1201, 1211, 1221, 1231, 1241, 1251, 1261, 1271, 1281, 1291, 1301, 1311, 1321, 1331, 1341, 1351, 1361, 1371, 1381, 1391, 1401, 1411, 1421, 1431, 1441, 1451, 1461, 1471, 1481, 1491, 1501, 1511, 1521, 1531, 1541, 1551, 1561, 1571, 1581, 1591, 1601, 1611, 1621, 1631, 1641, 1651, 1661, 1671, 1681, 1691, 1701]","1081","1920","[960, 960, 960, 960, 960, 960, 960, 960, 960, 960, 960, 960, 960, 960, 960, 960, 960, 960, 960, 960, 960, 960, 958, 955, 952, 942, 938, 933, 929, 920, 914, 908, 903, 894, 888, 884, 882, 874, 872, 871, 869, 865, 864, 863, 860, 857, 854, 852, 849, 842, 841, 835, 830, 821, 815, 810, 805, 792, 785, 779, 772, 758, 752, 744, 736, 718, 711, 702, 689, 670, 660, 652, 645, 632, 626, 623, 618, 607, 602, 597, 591, 581, 574, 568, 564, 558, 556, 553, 551, 546, 540, 535, 527, 514, 505, 499, 492, 481, 476, 472, 467, 460, 455, 448, 440, 424, 416, 403, 391, 363, 356, 347, 339, 328, 322, 317, 311, 301, 294, 289, 285, 272, 266, 260, 255, 246, 243, 241, 241, 239, 238, 237, 236, 233, 231, 227, 224, 217, 214, 211, 211, 211, 211, 211, 211, 211, 211, 211, 211, 211, 211, 211, 211, 211, 211, 211, 211, 211, 211, 211, 211, 211, 211, 211, 211, 211, 211, 211, 211, 211]","[1010, 1010, 1010, 1010, 1010, 1010, 1010, 1010, 1010, 1010, 1010, 1010, 1010, 1010, 1010, 1010, 1010, 1010, 1010, 1010, 1010, 1009, 1008, 1003, 997, 981, 975, 969, 962, 945, 930, 915, 904, 879, 867, 857, 849, 834, 829, 825, 820, 814, 809, 806, 801, 792, 788, 785, 780, 771, 768, 761, 753, 741, 733, 728, 720, 705, 698, 690, 681, 661, 651, 640, 631, 609, 600, 591, 581, 564, 556, 548, 540, 527, 520, 514, 506, 493, 484, 478, 471, 461, 454, 447, 441, 431, 427, 422, 416, 403, 395, 385, 376, 361, 354, 348, 343, 331, 324, 318, 310, 297, 289, 279, 270, 250, 243, 235, 225, 206, 201, 194, 189, 178, 174, 169, 164, 154, 150, 146, 143, 134, 130, 128, 124, 119, 117, 116, 115, 114, 113, 112, 110, 107, 105, 102, 101, 97, 96, 95, 95, 95, 95, 95, 95, 95, 95, 95, 95, 95, 95, 95, 95, 95, 95, 95, 95, 95, 95, 95, 95, 95, 95, 95, 95, 95, 95, 95, 95, 95]"
"Trust","Teilnehmer A hat Ihnen 2 Punkte übermittelt.","Payback","1","undefined","23","0","7","60","1080","341","5","1","1205","0","legacy","[11, 21, 31, 41, 51, 61, 71, 81, 91, 101, 111, 121, 131, 141, 151, 161, 171, 181, 191, 201, 211, 221, 231, 241, 251, 261, 271, 281, 291, 301, 311, 321, 331, 341, 351, 361, 371, 381, 391, 401, 411, 421, 431, 441, 451, 461, 471, 481, 491, 501, 511, 521, 531, 541, 551, 561, 571, 581, 591, 601, 611, 621, 631, 641, 651, 661, 671, 681, 691, 701, 711, 721, 731, 741, 751, 761, 771, 781, 791, 801, 811, 821, 831, 841, 851, 861, 871, 881, 891, 901, 911, 921, 931, 941, 951, 961, 971, 981, 991, 1001, 1011, 1021, 1031, 1041, 1051, 1061, 1071, 1081, 1091, 1101, 1111, 1121, 1131, 1141, 1151, 1161, 1171, 1181, 1191, 1201]","1081","1920","[960, 960, 960, 960, 960, 960, 960, 960, 960, 960, 960, 960, 960, 960, 960, 960, 960, 960, 960, 960, 960, 960, 960, 960, 960, 960, 960, 960, 960, 960, 960, 960, 960, 960, 960, 960, 960, 955, 954, 952, 949, 945, 940, 935, 929, 915, 903, 892, 877, 848, 829, 808, 779, 727, 703, 685, 667, 639, 621, 603, 585, 547, 530, 516, 501, 489, 480, 478, 471, 465, 450, 442, 433, 421, 397, 388, 381, 375, 363, 355, 349, 343, 326, 317, 309, 303, 290, 281, 273, 268, 257, 253, 246, 242, 230, 223, 215, 213, 211, 210, 209, 208, 207, 207, 207, 207, 207, 207, 207, 207, 207, 207, 207, 207, 207, 207, 207, 207, 207, 207]","[1010, 1010, 1010, 1010, 1010, 1010, 1010, 1010, 1010, 1010, 1010, 1010, 1010, 1010, 1010, 1010, 1010, 1010, 1010, 1010, 1010, 1010, 1010, 1010, 1010, 1007, 1003, 995, 987, 970, 962, 952, 943, 922, 912, 902, 887, 859, 846, 833, 820, 795, 784, 771, 759, 733, 714, 700, 679, 642, 621, 600, 576, 533, 509, 494, 479, 452, 437, 423, 406, 374, 361, 352, 341, 332, 327, 324, 319, 314, 300, 292, 282, 271, 254, 249, 246, 242, 233, 228, 224, 218, 200, 192, 185, 179, 166, 158, 152, 147, 134, 129, 121, 115, 99, 91, 86, 83, 81, 81, 80, 79, 76, 74, 74, 73, 71, 71, 71, 71, 71, 71, 71, 71, 71, 71, 71, 71, 71, 71]"
CHF,TotCHF,final_payoff,sum
"7.5","27.5","[0, 5, 5, 5]","15"
