Condition,PromiseStage,Stage,accuracy,avg_rt,count_decision_sequence,count_loop1,count_trial_sequence,font_size,height,init_time,payoff,response,rt,subject_nr,synth_backend,tTrajectory,time_experiment,width,xTrajectory,yTrajectory
"Promise","Wie oft werden Sie die Hälfte zurückgeben?","Promise","1","undefined","NA","0","0","60","1080","171","NA","1","2742","0","legacy","[11, 21, 31, 41, 51, 61, 71, 81, 91, 101, 111, 121, 131, 141, 151, 161, 171, 181, 191, 201, 211, 221, 231, 241, 251, 261, 271, 281, 291, 301, 311, 321, 331, 341, 351, 361, 371, 381, 391, 401, 411, 421, 431, 441, 451, 461, 471, 481, 491, 501, 511, 521, 531, 541, 551, 561, 571, 581, 591, 601, 611, 621, 631, 641, 651, 661, 671, 681, 691, 701, 711, 721, 731, 741, 751, 761, 771, 781, 791, 801, 811, 821, 831, 841, 851, 861, 871, 881, 891, 901, 911, 921, 931, 941, 951, 961, 971, 981, 991, 1001, 1011, 1021, 1031, 1041, 1051, 1061, 1071, 1081, 1091, 1101, 1111, 1121, 1131, 1141, 1151, 1161, 1171, 1181, 1191, 1201, 1211, 1221, 1231, 1241, 1251, 1261, 1271, 1281, 1291, 1301, 1311, 1321, 1331, 1341, 1351, 1361, 1371, 1381, 1391, 1401, 1411, 1421, 1431, 1441, 1451, 1461, 1471, 1481, 1491, 1501, 1511, 1521, 1531, 1541, 1551, 1561, 1571, 1581, 1591, 1601, 1611, 1621, 1631, 1641, 1651, 1661, 1671, 1681, 1691, 1701, 1711, 1721, 1731, 1741, 1751, 1761, 1771, 1781, 1791, 1801, 1811, 1821, 1831, 1841, 1851, 1861, 1871, 1881, 1891, 1901, 1911, 1921, 1931, 1941, 1951, 1961, 1971, 1981, 1991, 2001, 2011, 2021, 2031, 2041, 2051, 2061, 2071, 2081, 2091, 2101, 2111, 2121, 2131, 2141, 2151, 2161, 2171, 2181, 2191, 2201, 2211, 2221, 2231, 2241, 2251, 2261, 2271, 2281, 2291, 2301, 2311, 2321, 2331, 2341, 2351, 2361, 2371, 2381, 2391, 2401, 2411, 2421, 2431, 2441, 2451, 2461, 2471, 2481, 2491, 2501, 2511, 2521, 2531, 2541, 2551, 2561, 2571, 2581, 2591, 2601, 2611, 2621, 2631, 2641, 2651, 2661, 2671, 2681, 2691, 2701, 2711, 2721, 2731, 2741]","1126","1920","[960, 960, 960, 960, 960, 960, 960, 960, 960, 960, 960, 964, 970, 977, 996, 1008, 1022, 1032, 1062, 1084, 1108, 1147, 1221, 1256, 1300, 1336, 1409, 1434, 1462, 1483, 1517, 1528, 1538, 1548, 1559, 1565, 1568, 1571, 1578, 1581, 1583, 1586, 1590, 1591, 1591, 1592, 1594, 1594, 1595, 1595, 1597, 1599, 1600, 1602, 1607, 1611, 1614, 1619, 1630, 1639, 1647, 1654, 1674, 1684, 1692, 1698, 1711, 1717, 1722, 1728, 1737, 1739, 1741, 1743, 1744, 1744, 1744, 1747, 1747, 1749, 1750, 1750, 1751, 1751, 1751, 1751, 1751, 1751, 1751, 1751, 1751, 1751, 1751, 1751, 1751, 1751, 1751, 1751, 1751, 1750, 1750, 1750, 1748, 1747, 1747, 1746, 1745, 1745, 1745, 1745, 1743, 1743, 1742, 1742, 1742, 1742, 1742, 1742, 1741, 1741, 1741, 1740, 1739, 1739, 1737, 1737, 1735, 1735, 1733, 1733, 1732, 1731, 1731, 1731, 1730, 1730, 1729, 1729, 1728, 1728, 1728, 1728, 1727, 1727, 1727, 1727, 1727, 1727, 1727, 1727, 1726, 1726, 1726, 1726, 1726, 1726, 1726, 1726, 1726, 1726, 1726, 1726, 1726, 1726, 1726, 1726, 1726, 1726, 1726, 1726, 1726, 1726, 1726, 1726, 1726, 1726, 1727, 1727, 1728, 1728, 1728, 1728, 1728, 1728, 1728, 1728, 1728, 1728, 1728, 1728, 1729, 1729, 1730, 1730, 1730, 1730, 1730, 1730, 1730, 1730, 1730, 1730, 1730, 1730, 1730, 1730, 1730, 1730, 1730, 1730, 1730, 1730, 1730, 1730, 1730, 1730, 1730, 1730, 1730, 1730, 1730, 1730, 1730, 1730, 1730, 1730, 1730, 1730, 1730, 1730, 1730, 1730, 1730, 1730, 1730, 1730, 1730, 1730, 1730, 1730, 1730, 1730, 1730, 1730, 1730, 1730, 1730, 1730, 1730, 1730, 1730, 1730, 1730, 1730, 1730, 1730, 1730, 1730, 1730, 1730, 1730, 1730, 1730, 1730, 1730, 1730, 1730, 1730, 1730, 1730, 1730, 1730, 1730, 1730]","[1010, 1010, 1010, 1010, 1010, 1010, 1010, 1010, 1010, 1010, 1010, 1007, 997, 987, 961, 946, 931, 919, 881, 850, 816, 755, 632, 569, 503, 448, 347, 311, 279, 253, 208, 191, 179, 165, 147, 138, 131, 125, 114, 107, 102, 98, 90, 90, 88, 86, 84, 84, 83, 83, 83, 81, 81, 81, 81, 81, 81, 81, 81, 81, 81, 81, 79, 76, 73, 70, 64, 62, 59, 57, 55, 54, 53, 52, 52, 51, 51, 51, 50, 49, 49, 49, 48, 48, 48, 48, 48, 48, 48, 48, 48, 48, 48, 48, 48, 48, 48, 48, 48, 50, 51, 52, 55, 57, 58, 59, 62, 63, 63, 65, 67, 67, 68, 68, 69, 69, 69, 69, 72, 72, 72, 73, 75, 75, 77, 78, 80, 81, 82, 83, 84, 86, 86, 86, 87, 87, 89, 89, 89, 89, 89, 90, 90, 92, 92, 92, 92, 92, 93, 94, 95, 95, 95, 95, 95, 95, 95, 95, 95, 95, 95, 95, 95, 95, 95, 95, 95, 95, 95, 95, 95, 95, 95, 95, 95, 94, 93, 93, 92, 91, 91, 91, 91, 91, 91, 91, 91, 91, 91, 91, 90, 90, 90, 90, 90, 89, 89, 89, 89, 89, 89, 89, 89, 89, 89, 89, 89, 89, 89, 89, 89, 89, 89, 89, 89, 89, 89, 89, 89, 89, 89, 89, 89, 89, 89, 89, 89, 89, 89, 89, 89, 89, 89, 89, 89, 89, 89, 89, 89, 89, 89, 89, 89, 89, 89, 89, 89, 89, 89, 89, 89, 89, 89, 89, 89, 89, 89, 89, 89, 89, 89, 89, 89, 89, 89, 89, 89, 89, 89, 89, 89, 89, 89, 89]"
Cond,DecisionB,Stage,accuracy,avg_rt,count_decision_sequence,count_loop1,count_trial_sequence,font_size,height,init_time,payoff,response,rt,subject_nr,synth_backend,tTrajectory,time_experiment,width,xTrajectory,yTrajectory
"Trust","Teilnehmer A hat Ihnen 2 Punkte übermittelt.","Payback","1","undefined","0","0","0","60","1080","321","5","1","2157","0","legacy","[11, 21, 31, 41, 51, 61, 71, 81, 91, 101, 111, 121, 131, 141, 151, 161, 171, 181, 191, 201, 211, 221, 231, 241, 251, 261, 271, 281, 291, 301, 311, 321, 331, 341, 351, 361, 371, 381, 391, 401, 411, 421, 431, 441, 451, 461, 471, 481, 491, 501, 511, 521, 531, 541, 551, 561, 571, 581, 591, 601, 611, 621, 631, 641, 651, 661, 671, 681, 691, 701, 711, 721, 731, 741, 751, 761, 771, 781, 791, 801, 811, 821, 831, 841, 851, 861, 871, 881, 891, 901, 911, 921, 931, 941, 951, 961, 971, 981, 991, 1001, 1011, 1021, 1031, 1041, 1051, 1061, 1071, 1081, 1091, 1101, 1111, 1121, 1131, 1141, 1151, 1161, 1171, 1181, 1191, 1201, 1211, 1221, 1231, 1241, 1251, 1261, 1271, 1281, 1291, 1301, 1311, 1321, 1331, 1341, 1351, 1361, 1371, 1381, 1391, 1401, 1411, 1421, 1431, 1441, 1451, 1461, 1471, 1481, 1491, 1501, 1511, 1521, 1531, 1541, 1551, 1561, 1571, 1581, 1591, 1601, 1611, 1621, 1631, 1641, 1651, 1661, 1671, 1681, 1691, 1701, 1711, 1721, 1731, 1741, 1751, 1761, 1771, 1781, 1791, 1801, 1811, 1821, 1831, 1841, 1851, 1861, 1871, 1881, 1891, 1901, 1911, 1921, 1931, 1941, 1951, 1961, 1971, 1981, 1991, 2001, 2011, 2021, 2031, 2041, 2051, 2061, 2071, 2081, 2091, 2101, 2111, 2121, 2131, 2141, 2151]","1126","1920","[960, 960, 960, 960, 960, 960, 960, 960, 960, 960, 960, 960, 960, 960, 960, 960, 960, 960, 960, 960, 960, 960, 960, 960, 962, 964, 969, 970, 973, 974, 978, 980, 983, 984, 988, 988, 989, 990, 990, 992, 993, 993, 995, 996, 996, 997, 997, 998, 998, 998, 998, 998, 996, 991, 984, 984, 984, 984, 984, 984, 984, 984, 984, 984, 984, 984, 984, 984, 984, 984, 984, 984, 984, 984, 984, 984, 984, 984, 984, 984, 984, 984, 984, 984, 984, 984, 984, 984, 984, 984, 984, 984, 984, 984, 984, 984, 984, 984, 984, 984, 984, 984, 984, 984, 984, 984, 984, 984, 984, 984, 984, 984, 984, 984, 984, 984, 984, 984, 984, 984, 984, 984, 984, 984, 984, 984, 984, 984, 984, 984, 984, 984, 984, 984, 984, 984, 984, 984, 984, 984, 984, 984, 984, 984, 984, 985, 990, 995, 1004, 1015, 1040, 1060, 1085, 1105, 1167, 1214, 1256, 1293, 1353, 1371, 1395, 1417, 1453, 1469, 1481, 1494, 1513, 1518, 1521, 1525, 1529, 1532, 1537, 1540, 1547, 1549, 1551, 1554, 1559, 1564, 1569, 1574, 1590, 1597, 1608, 1615, 1633, 1644, 1654, 1664, 1683, 1691, 1697, 1701, 1707, 1712, 1715, 1718, 1722, 1724, 1725, 1725, 1725, 1725, 1727, 1727, 1727, 1727, 1728, 1728, 1728, 1728, 1728, 1728, 1728]","[1010, 1010, 1010, 1010, 1010, 1010, 1010, 1010, 1010, 1010, 1010, 1010, 1010, 1010, 1010, 1010, 1010, 1010, 1010, 1010, 1010, 1010, 1004, 999, 994, 988, 974, 967, 961, 956, 942, 933, 923, 916, 904, 898, 895, 889, 884, 881, 878, 873, 861, 855, 853, 850, 846, 844, 843, 839, 829, 821, 813, 803, 783, 775, 775, 775, 775, 775, 775, 775, 775, 775, 775, 775, 775, 775, 775, 775, 775, 775, 775, 775, 775, 775, 775, 775, 775, 775, 775, 775, 775, 775, 775, 775, 773, 773, 773, 773, 773, 773, 773, 773, 772, 772, 772, 772, 772, 772, 772, 772, 772, 772, 772, 772, 772, 772, 772, 772, 772, 772, 772, 772, 772, 772, 772, 772, 772, 772, 772, 772, 772, 772, 772, 772, 772, 772, 772, 772, 772, 772, 772, 772, 772, 772, 772, 772, 772, 772, 772, 772, 771, 770, 769, 769, 765, 762, 755, 747, 729, 715, 698, 685, 639, 609, 577, 541, 472, 449, 418, 394, 353, 339, 327, 314, 296, 291, 286, 282, 279, 276, 272, 268, 263, 261, 259, 257, 254, 249, 242, 237, 221, 215, 206, 198, 183, 175, 164, 157, 142, 137, 131, 129, 119, 114, 110, 107, 101, 99, 98, 97, 96, 94, 93, 92, 90, 90, 90, 90, 90, 90, 90, 90, 90]"
"Trust","Teilnehmer A hat Ihnen 2 Punkte übermittelt.","Payback","1","undefined","1","0","0","60","1080","191","5","1","1238","0","legacy","[11, 21, 31, 41, 51, 61, 71, 81, 91, 101, 111, 121, 131, 141, 151, 161, 171, 181, 191, 201, 211, 221, 231, 241, 251, 261, 271, 281, 291, 301, 311, 321, 331, 341, 351, 361, 371, 381, 391, 401, 411, 421, 431, 441, 451, 461, 471, 481, 491, 501, 511, 521, 531, 541, 551, 561, 571, 581, 591, 601, 611, 621, 631, 641, 651, 661, 671, 681, 691, 701, 711, 721, 731, 741, 751, 761, 771, 781, 791, 801, 811, 821, 831, 841, 851, 861, 871, 881, 891, 901, 911, 921, 931, 941, 951, 961, 971, 981, 991, 1001, 1011, 1021, 1031, 1041, 1051, 1061, 1071, 1081, 1091, 1101, 1111, 1121, 1131, 1141, 1151, 1161, 1171, 1181, 1191, 1201, 1211, 1221, 1231]","1126","1920","[960, 960, 960, 960, 960, 960, 960, 960, 960, 960, 960, 961, 961, 965, 974, 982, 993, 1006, 1039, 1060, 1088, 1122, 1196, 1235, 1274, 1321, 1391, 1425, 1461, 1498, 1551, 1574, 1592, 1604, 1625, 1633, 1640, 1647, 1657, 1660, 1661, 1663, 1664, 1664, 1666, 1666, 1670, 1675, 1679, 1681, 1693, 1698, 1703, 1706, 1718, 1721, 1725, 1729, 1736, 1738, 1741, 1743, 1748, 1750, 1752, 1754, 1756, 1758, 1760, 1762, 1766, 1768, 1770, 1771, 1773, 1775, 1776, 1776, 1779, 1779, 1780, 1780, 1782, 1782, 1782, 1783, 1784, 1784, 1784, 1784, 1785, 1785, 1785, 1785, 1785, 1785, 1785, 1785, 1785, 1785, 1785, 1785, 1785, 1785, 1785, 1785, 1785, 1785, 1785, 1785, 1785, 1785, 1785, 1785, 1785, 1785, 1785, 1785, 1785, 1785, 1785, 1785, 1785]","[1010, 1010, 1010, 1010, 1010, 1010, 1010, 1010, 1010, 1010, 1010, 1010, 1009, 1003, 984, 973, 957, 940, 904, 875, 846, 804, 713, 665, 613, 559, 476, 439, 410, 381, 336, 315, 301, 289, 269, 261, 254, 249, 240, 236, 236, 233, 232, 232, 230, 230, 226, 222, 219, 217, 206, 202, 197, 194, 184, 181, 177, 171, 162, 159, 155, 153, 145, 142, 138, 136, 130, 127, 124, 120, 115, 111, 106, 104, 101, 97, 97, 95, 90, 88, 87, 86, 83, 81, 81, 80, 78, 78, 78, 76, 75, 75, 75, 75, 75, 75, 75, 75, 75, 75, 75, 75, 75, 75, 75, 75, 75, 75, 75, 75, 75, 75, 75, 75, 75, 75, 75, 75, 75, 75, 75, 75, 75]"
"NoTrust","Teilnehmer A hat Ihnen keine 2 Punkte übermittelt.","Payback","1","undefined","2","0","0","60","1080","191","0","1","1238","0","legacy","[11, 21, 31, 41, 51, 61, 71, 81, 91, 101, 111, 121, 131, 141, 151, 161, 171, 181, 191, 201, 211, 221, 231, 241, 251, 261, 271, 281, 291, 301, 311, 321, 331, 341, 351, 361, 371, 381, 391, 401, 411, 421, 431, 441, 451, 461, 471, 481, 491, 501, 511, 521, 531, 541, 551, 561, 571, 581, 591, 601, 611, 621, 631, 641, 651, 661, 671, 681, 691, 701, 711, 721, 731, 741, 751, 761, 771, 781, 791, 801, 811, 821, 831, 841, 851, 861, 871, 881, 891, 901, 911, 921, 931, 941, 951, 961, 971, 981, 991, 1001, 1011, 1021, 1031, 1041, 1051, 1061, 1071, 1081, 1091, 1101, 1111, 1121, 1131, 1141, 1151, 1161, 1171, 1181, 1191, 1201, 1211, 1221, 1231]","1126","1920","[960, 960, 960, 960, 960, 960, 960, 960, 960, 960, 960, 961, 961, 965, 974, 982, 993, 1006, 1039, 1060, 1088, 1122, 1196, 1235, 1274, 1321, 1391, 1425, 1461, 1498, 1551, 1574, 1592, 1604, 1625, 1633, 1640, 1647, 1657, 1660, 1661, 1663, 1664, 1664, 1666, 1666, 1670, 1675, 1679, 1681, 1693, 1698, 1703, 1706, 1718, 1721, 1725, 1729, 1736, 1738, 1741, 1743, 1748, 1750, 1752, 1754, 1756, 1758, 1760, 1762, 1766, 1768, 1770, 1771, 1773, 1775, 1776, 1776, 1779, 1779, 1780, 1780, 1782, 1782, 1782, 1783, 1784, 1784, 1784, 1784, 1785, 1785, 1785, 1785, 1785, 1785, 1785, 1785, 1785, 1785, 1785, 1785, 1785, 1785, 1785, 1785, 1785, 1785, 1785, 1785, 1785, 1785, 1785, 1785, 1785, 1785, 1785, 1785, 1785, 1785, 1785, 1785, 1785]","[1010, 1010, 1010, 1010, 1010, 1010, 1010, 1010, 1010, 1010, 1010, 1010, 1009, 1003, 984, 973, 957, 940, 904, 875, 846, 804, 713, 665, 613, 559, 476, 439, 410, 381, 336, 315, 301, 289, 269, 261, 254, 249, 240, 236, 236, 233, 232, 232, 230, 230, 226, 222, 219, 217, 206, 202, 197, 194, 184, 181, 177, 171, 162, 159, 155, 153, 145, 142, 138, 136, 130, 127, 124, 120, 115, 111, 106, 104, 101, 97, 97, 95, 90, 88, 87, 86, 83, 81, 81, 80, 78, 78, 78, 76, 75, 75, 75, 75, 75, 75, 75, 75, 75, 75, 75, 75, 75, 75, 75, 75, 75, 75, 75, 75, 75, 75, 75, 75, 75, 75, 75, 75, 75, 75, 75, 75, 75]"
"Promise","Wie oft werden Sie die Hälfte zurückgeben?","Promise","1","undefined","2","0","1","60","1080","191","0","1","855","0","legacy","[11, 21, 31, 41, 51, 61, 71, 81, 91, 101, 111, 121, 131, 141, 151, 161, 171, 181, 191, 201, 211, 221, 231, 241, 251, 261, 271, 281, 291, 301, 311, 321, 331, 341, 351, 361, 371, 381, 391, 401, 411, 421, 431, 441, 451, 461, 471, 481, 491, 501, 511, 521, 531, 541, 551, 561, 571, 581, 591, 601, 611, 621, 631, 641, 651, 661, 671, 681, 691, 701, 711, 721, 731, 741, 751, 761, 771, 781, 791, 801, 811, 821, 831, 841, 851]","1126","1920","[960, 960, 960, 960, 960, 960, 960, 960, 960, 960, 960, 960, 960, 961, 965, 982, 996, 1022, 1059, 1164, 1218, 1278, 1328, 1423, 1475, 1522, 1574, 1660, 1700, 1733, 1754, 1791, 1804, 1812, 1817, 1828, 1832, 1836, 1841, 1846, 1847, 1849, 1851, 1854, 1856, 1859, 1859, 1863, 1863, 1864, 1864, 1864, 1864, 1864, 1864, 1864, 1864, 1864, 1864, 1864, 1864, 1862, 1858, 1854, 1852, 1851, 1850, 1848, 1847, 1846, 1844, 1841, 1839, 1837, 1837, 1833, 1833, 1832, 1832, 1832, 1832, 1832, 1832, 1832, 1832]","[1010, 1010, 1010, 1010, 1010, 1010, 1010, 1010, 1010, 1010, 1010, 1010, 1010, 1011, 1011, 1000, 987, 964, 935, 839, 784, 727, 673, 563, 509, 457, 401, 307, 266, 234, 212, 177, 160, 149, 139, 123, 117, 112, 104, 94, 89, 83, 80, 73, 70, 65, 63, 58, 57, 56, 56, 55, 55, 55, 55, 55, 55, 55, 55, 57, 58, 60, 63, 67, 69, 70, 71, 73, 74, 75, 76, 78, 79, 80, 81, 83, 83, 83, 83, 83, 83, 83, 83, 83, 83]"
"Trust","Teilnehmer A hat Ihnen 2 Punkte übermittelt.","Payback","1","undefined","3","0","1","60","1080","191","5","1","742","0","legacy","[11, 21, 31, 41, 51, 61, 71, 81, 91, 101, 111, 121, 131, 141, 151, 161, 171, 181, 191, 201, 211, 221, 231, 241, 251, 261, 271, 281, 291, 301, 311, 321, 331, 341, 351, 361, 371, 381, 391, 401, 411, 421, 431, 441, 451, 461, 471, 481, 491, 501, 511, 521, 531, 541, 551, 561, 571, 581, 591, 601, 611, 621, 631, 641, 651, 661, 671, 681, 691, 701, 711, 721, 731, 741]","1126","1920","[960, 960, 960, 960, 960, 960, 960, 960, 960, 960, 961, 963, 966, 970, 988, 998, 1018, 1043, 1115, 1161, 1215, 1269, 1399, 1468, 1532, 1588, 1670, 1712, 1743, 1772, 1814, 1823, 1833, 1838, 1845, 1846, 1848, 1849, 1849, 1849, 1849, 1849, 1849, 1849, 1849, 1848, 1842, 1837, 1829, 1822, 1808, 1803, 1797, 1792, 1783, 1781, 1780, 1780, 1780, 1778, 1778, 1778, 1777, 1777, 1777, 1777, 1776, 1776, 1776, 1776, 1776, 1776, 1776, 1776]","[1010, 1010, 1010, 1010, 1010, 1010, 1010, 1010, 1010, 1010, 1010, 1010, 1008, 1005, 993, 984, 967, 948, 884, 842, 797, 745, 627, 548, 478, 411, 309, 259, 224, 187, 136, 119, 107, 99, 84, 81, 77, 77, 77, 77, 77, 77, 77, 76, 76, 76, 84, 90, 98, 106, 120, 124, 127, 129, 130, 130, 130, 130, 130, 129, 128, 124, 118, 117, 115, 114, 112, 111, 111, 109, 109, 108, 108, 108]"
"Trust","Teilnehmer A hat Ihnen 2 Punkte übermittelt.","Payback","1","undefined","4","0","1","60","1080","151","5","1","781","0","legacy","[11, 21, 31, 41, 51, 61, 71, 81, 91, 101, 111, 121, 131, 141, 151, 161, 171, 181, 191, 201, 211, 221, 231, 241, 251, 261, 271, 281, 291, 301, 311, 321, 331, 341, 351, 361, 371, 381, 391, 401, 411, 421, 431, 441, 451, 461, 471, 481, 491, 501, 511, 521, 531, 541, 551, 561, 571, 581, 591, 601, 611, 621, 631, 641, 651, 661, 671, 681, 691, 701, 711, 721, 731, 741, 751, 761, 771, 781]","1126","1920","[960, 960, 960, 960, 960, 960, 960, 960, 960, 960, 961, 965, 976, 987, 1040, 1083, 1137, 1195, 1319, 1377, 1430, 1476, 1573, 1610, 1643, 1670, 1716, 1729, 1743, 1753, 1769, 1774, 1777, 1780, 1782, 1783, 1783, 1783, 1783, 1783, 1783, 1783, 1783, 1783, 1783, 1783, 1783, 1783, 1783, 1783, 1783, 1783, 1783, 1782, 1778, 1776, 1774, 1771, 1769, 1768, 1767, 1767, 1766, 1766, 1764, 1763, 1758, 1756, 1754, 1753, 1751, 1751, 1751, 1750, 1750, 1750, 1750, 1750]","[1010, 1010, 1010, 1010, 1010, 1010, 1010, 1010, 1010, 1010, 1010, 1009, 998, 984, 937, 898, 846, 781, 646, 584, 519, 463, 350, 305, 258, 224, 159, 140, 117, 105, 86, 80, 75, 72, 66, 65, 64, 64, 63, 63, 63, 63, 63, 63, 63, 63, 63, 63, 63, 63, 63, 63, 63, 63, 65, 65, 65, 67, 68, 69, 69, 69, 70, 70, 70, 70, 72, 73, 73, 74, 75, 75, 75, 76, 76, 76, 76, 76]"
"Trust","Teilnehmer A hat Ihnen 2 Punkte übermittelt.","Payback","1","undefined","5","0","1","60","1080","111","5","1","646","0","legacy","[11, 21, 31, 41, 51, 61, 71, 81, 91, 101, 111, 121, 131, 141, 151, 161, 171, 181, 191, 201, 211, 221, 231, 241, 251, 261, 271, 281, 291, 301, 311, 321, 331, 341, 351, 361, 371, 381, 391, 401, 411, 421, 431, 441, 451, 461, 471, 481, 491, 501, 511, 521, 531, 541, 551, 561, 571, 581, 591, 601, 611, 621, 631, 641]","1126","1920","[960, 960, 960, 960, 960, 960, 960, 960, 961, 975, 1028, 1076, 1129, 1196, 1333, 1402, 1470, 1534, 1647, 1701, 1747, 1788, 1850, 1876, 1896, 1911, 1919, 1919, 1919, 1919, 1919, 1919, 1919, 1919, 1919, 1919, 1919, 1919, 1919, 1919, 1919, 1919, 1919, 1919, 1919, 1919, 1919, 1915, 1905, 1896, 1882, 1881, 1879, 1879, 1878, 1876, 1875, 1873, 1871, 1871, 1871, 1871, 1871, 1871]","[1010, 1010, 1010, 1010, 1010, 1010, 1010, 1010, 1004, 988, 936, 896, 856, 807, 702, 646, 589, 541, 441, 391, 345, 304, 228, 199, 173, 151, 123, 113, 106, 101, 95, 94, 90, 90, 90, 90, 90, 90, 89, 87, 87, 85, 83, 81, 80, 78, 74, 69, 65, 61, 56, 56, 56, 56, 56, 56, 56, 56, 56, 56, 56, 56, 56, 56]"
"Promise","Wie oft werden Sie die Hälfte zurückgeben?","Promise","1","undefined","5","0","2","60","1080","151","5","1","1008","0","legacy","[11, 21, 31, 41, 51, 61, 71, 81, 91, 101, 111, 121, 131, 141, 151, 161, 171, 181, 191, 201, 211, 221, 231, 241, 251, 261, 271, 281, 291, 301, 311, 321, 331, 341, 351, 361, 371, 381, 391, 401, 411, 421, 431, 441, 451, 461, 471, 481, 491, 501, 511, 521, 531, 541, 551, 561, 571, 581, 591, 601, 611, 621, 631, 641, 651, 661, 671, 681, 691, 701, 711, 721, 731, 741, 751, 761, 771, 781, 791, 801, 811, 821, 831, 841, 851, 861, 871, 881, 891, 901, 911, 921, 931, 941, 951, 961, 971, 981, 991, 1001]","1126","1920","[960, 960, 960, 960, 960, 960, 960, 960, 960, 961, 966, 984, 996, 1010, 1040, 1121, 1167, 1215, 1266, 1345, 1387, 1423, 1454, 1522, 1552, 1579, 1597, 1629, 1643, 1650, 1660, 1675, 1685, 1692, 1699, 1715, 1720, 1726, 1730, 1736, 1737, 1738, 1738, 1738, 1738, 1738, 1738, 1738, 1739, 1739, 1739, 1739, 1739, 1739, 1739, 1739, 1739, 1739, 1739, 1739, 1739, 1739, 1739, 1739, 1739, 1739, 1739, 1739, 1739, 1739, 1739, 1739, 1739, 1739, 1739, 1739, 1739, 1739, 1739, 1739, 1739, 1739, 1739, 1739, 1739, 1739, 1739, 1739, 1739, 1739, 1739, 1739, 1739, 1739, 1739, 1739, 1739, 1739, 1739, 1739]","[1010, 1010, 1010, 1010, 1010, 1010, 1010, 1010, 1010, 1010, 1010, 990, 974, 959, 929, 836, 772, 695, 625, 517, 466, 428, 389, 309, 277, 240, 217, 175, 155, 142, 127, 106, 92, 81, 69, 44, 34, 23, 16, 5, 3, 1, 0, 0, 0, 0, 0, 0, 2, 5, 6, 17, 22, 25, 29, 33, 34, 36, 38, 44, 45, 47, 49, 52, 54, 55, 55, 55, 55, 55, 55, 55, 55, 55, 55, 55, 55, 55, 55, 55, 55, 55, 56, 56, 56, 56, 56, 56, 56, 56, 56, 56, 56, 56, 56, 56, 56, 56, 56, 56]"
"Trust","Teilnehmer A hat Ihnen 2 Punkte übermittelt.","Payback","1","undefined","6","0","2","60","1080","121","5","1","710","0","legacy","[11, 21, 31, 41, 51, 61, 71, 81, 91, 101, 111, 121, 131, 141, 151, 161, 171, 181, 191, 201, 211, 221, 231, 241, 251, 261, 271, 281, 291, 301, 311, 321, 331, 341, 351, 361, 371, 381, 391, 401, 411, 421, 431, 441, 451, 461, 471, 481, 491, 501, 511, 521, 531, 541, 551, 561, 571, 581, 591, 601, 611, 621, 631, 641, 651, 661, 671, 681, 691, 701]","1126","1920","[960, 960, 960, 960, 960, 960, 960, 960, 962, 973, 1011, 1044, 1085, 1139, 1243, 1294, 1337, 1379, 1454, 1482, 1503, 1517, 1541, 1549, 1553, 1555, 1561, 1562, 1565, 1566, 1566, 1566, 1566, 1568, 1568, 1568, 1568, 1568, 1568, 1568, 1568, 1568, 1568, 1568, 1570, 1576, 1586, 1593, 1600, 1607, 1632, 1642, 1651, 1655, 1665, 1667, 1668, 1671, 1675, 1677, 1678, 1680, 1680, 1680, 1680, 1680, 1680, 1680, 1680, 1680]","[1010, 1010, 1010, 1010, 1010, 1010, 1010, 1010, 1008, 995, 940, 897, 854, 802, 715, 673, 634, 597, 533, 501, 475, 458, 422, 410, 396, 389, 372, 365, 359, 354, 350, 349, 349, 348, 348, 348, 348, 348, 347, 347, 347, 347, 346, 343, 337, 326, 301, 283, 263, 243, 190, 167, 141, 127, 96, 85, 75, 67, 53, 48, 45, 43, 43, 43, 43, 43, 43, 43, 43, 43]"
"Trust","Teilnehmer A hat Ihnen 2 Punkte übermittelt.","Payback","1","undefined","7","0","2","60","1080","131","5","1","629","0","legacy","[11, 21, 31, 41, 51, 61, 71, 81, 91, 101, 111, 121, 131, 141, 151, 161, 171, 181, 191, 201, 211, 221, 231, 241, 251, 261, 271, 281, 291, 301, 311, 321, 331, 341, 351, 361, 371, 381, 391, 401, 411, 421, 431, 441, 451, 461, 471, 481, 491, 501, 511, 521, 531, 541, 551, 561, 571, 581, 591, 601, 611, 621]","1126","1920","[960, 960, 960, 960, 960, 960, 960, 960, 960, 961, 978, 996, 1023, 1053, 1132, 1174, 1210, 1256, 1326, 1355, 1376, 1398, 1445, 1463, 1479, 1499, 1531, 1543, 1558, 1572, 1590, 1596, 1602, 1608, 1618, 1624, 1629, 1633, 1644, 1650, 1653, 1657, 1663, 1667, 1668, 1672, 1676, 1679, 1683, 1687, 1692, 1695, 1697, 1699, 1701, 1703, 1703, 1703, 1703, 1703, 1703, 1703]","[1010, 1010, 1010, 1010, 1010, 1010, 1010, 1010, 1010, 1008, 983, 960, 926, 892, 798, 750, 710, 671, 603, 573, 547, 524, 466, 441, 409, 388, 343, 323, 306, 283, 256, 244, 233, 220, 203, 193, 184, 176, 156, 148, 140, 133, 121, 117, 113, 109, 100, 94, 86, 81, 70, 66, 61, 56, 52, 50, 49, 49, 48, 48, 48, 48]"
"NoTrust","Teilnehmer A hat Ihnen keine 2 Punkte übermittelt.","Payback","1","undefined","8","0","2","60","1080","131","0","1","629","0","legacy","[11, 21, 31, 41, 51, 61, 71, 81, 91, 101, 111, 121, 131, 141, 151, 161, 171, 181, 191, 201, 211, 221, 231, 241, 251, 261, 271, 281, 291, 301, 311, 321, 331, 341, 351, 361, 371, 381, 391, 401, 411, 421, 431, 441, 451, 461, 471, 481, 491, 501, 511, 521, 531, 541, 551, 561, 571, 581, 591, 601, 611, 621]","1126","1920","[960, 960, 960, 960, 960, 960, 960, 960, 960, 961, 978, 996, 1023, 1053, 1132, 1174, 1210, 1256, 1326, 1355, 1376, 1398, 1445, 1463, 1479, 1499, 1531, 1543, 1558, 1572, 1590, 1596, 1602, 1608, 1618, 1624, 1629, 1633, 1644, 1650, 1653, 1657, 1663, 1667, 1668, 1672, 1676, 1679, 1683, 1687, 1692, 1695, 1697, 1699, 1701, 1703, 1703, 1703, 1703, 1703, 1703, 1703]","[1010, 1010, 1010, 1010, 1010, 1010, 1010, 1010, 1010, 1008, 983, 960, 926, 892, 798, 750, 710, 671, 603, 573, 547, 524, 466, 441, 409, 388, 343, 323, 306, 283, 256, 244, 233, 220, 203, 193, 184, 176, 156, 148, 140, 133, 121, 117, 113, 109, 100, 94, 86, 81, 70, 66, 61, 56, 52, 50, 49, 49, 48, 48, 48, 48]"
"Promise","Wie oft werden Sie die Hälfte zurückgeben?","Promise","1","undefined","8","0","3","60","1080","101","0","1","784","0","legacy","[11, 21, 31, 41, 51, 61, 71, 81, 91, 101, 111, 121, 131, 141, 151, 161, 171, 181, 191, 201, 211, 221, 231, 241, 251, 261, 271, 281, 291, 301, 311, 321, 331, 341, 351, 361, 371, 381, 391, 401, 411, 421, 431, 441, 451, 461, 471, 481, 491, 501, 511, 521, 531, 541, 551, 561, 571, 581, 591, 601, 611, 621, 631, 641, 651, 661, 671, 681, 691, 701, 711, 721, 731, 741, 751, 761, 771, 781]","1126","1920","[960, 960, 960, 960, 960, 960, 962, 973, 983, 1004, 1036, 1129, 1173, 1221, 1263, 1358, 1407, 1455, 1495, 1553, 1570, 1579, 1586, 1592, 1592, 1594, 1594, 1595, 1595, 1595, 1595, 1595, 1595, 1595, 1595, 1595, 1596, 1597, 1597, 1599, 1601, 1601, 1603, 1608, 1614, 1618, 1622, 1629, 1632, 1635, 1638, 1644, 1646, 1648, 1648, 1649, 1649, 1650, 1650, 1652, 1652, 1653, 1653, 1653, 1655, 1655, 1655, 1656, 1656, 1656, 1656, 1656, 1656, 1656, 1656, 1656, 1656, 1656]","[1010, 1010, 1010, 1010, 1010, 1010, 1008, 990, 971, 936, 876, 743, 679, 623, 570, 475, 433, 391, 352, 306, 291, 285, 277, 267, 266, 264, 263, 261, 261, 261, 261, 261, 261, 261, 261, 261, 260, 258, 257, 253, 249, 246, 241, 229, 220, 213, 204, 188, 181, 171, 163, 147, 142, 136, 133, 129, 126, 124, 124, 119, 118, 117, 115, 112, 110, 110, 110, 107, 107, 107, 107, 107, 107, 107, 107, 107, 107, 107]"
"Trust","Teilnehmer A hat Ihnen 2 Punkte übermittelt.","Payback","1","undefined","9","0","3","60","1080","111","5","1","606","0","legacy","[11, 21, 31, 41, 51, 61, 71, 81, 91, 101, 111, 121, 131, 141, 151, 161, 171, 181, 191, 201, 211, 221, 231, 241, 251, 261, 271, 281, 291, 301, 311, 321, 331, 341, 351, 361, 371, 381, 391, 401, 411, 421, 431, 441, 451, 461, 471, 481, 491, 501, 511, 521, 531, 541, 551, 561, 571, 581, 591, 601]","1126","1920","[960, 960, 960, 960, 960, 960, 960, 962, 968, 983, 1034, 1078, 1126, 1182, 1290, 1347, 1402, 1458, 1553, 1593, 1630, 1654, 1676, 1680, 1682, 1684, 1685, 1685, 1685, 1685, 1685, 1685, 1685, 1685, 1685, 1685, 1685, 1685, 1685, 1685, 1685, 1685, 1685, 1685, 1685, 1685, 1685, 1685, 1685, 1685, 1687, 1688, 1688, 1688, 1688, 1688, 1688, 1688, 1688, 1688]","[1010, 1010, 1010, 1010, 1010, 1010, 1010, 1005, 988, 956, 851, 792, 731, 664, 547, 490, 428, 366, 266, 230, 201, 179, 156, 148, 144, 139, 135, 133, 133, 133, 133, 133, 133, 133, 133, 133, 133, 133, 133, 133, 133, 133, 133, 133, 133, 133, 129, 127, 124, 120, 115, 113, 112, 111, 111, 111, 111, 111, 111, 111]"
"Trust","Teilnehmer A hat Ihnen 2 Punkte übermittelt.","Payback","1","undefined","10","0","3","60","1080","101","5","1","1038","0","legacy","[11, 21, 31, 41, 51, 61, 71, 81, 91, 101, 111, 121, 131, 141, 151, 161, 171, 181, 191, 201, 211, 221, 231, 241, 251, 261, 271, 281, 291, 301, 311, 321, 331, 341, 351, 361, 371, 381, 391, 401, 411, 421, 431, 441, 451, 461, 471, 481, 491, 501, 511, 521, 531, 541, 551, 561, 571, 581, 591, 601, 611, 621, 631, 641, 651, 661, 671, 681, 691, 701, 711, 721, 731, 741, 751, 761, 771, 781, 791, 801, 811, 821, 831, 841, 851, 861, 871, 881, 891, 901, 911, 921, 931, 941, 951, 961, 971, 981, 991, 1001, 1011, 1021, 1031]","1126","1920","[960, 960, 960, 960, 960, 960, 961, 967, 979, 999, 1072, 1115, 1161, 1208, 1303, 1348, 1388, 1426, 1493, 1525, 1551, 1571, 1604, 1615, 1630, 1637, 1648, 1653, 1658, 1660, 1663, 1664, 1666, 1667, 1669, 1669, 1672, 1674, 1678, 1678, 1678, 1678, 1678, 1678, 1678, 1678, 1678, 1678, 1678, 1678, 1678, 1678, 1678, 1678, 1678, 1678, 1678, 1678, 1678, 1678, 1678, 1678, 1678, 1678, 1678, 1678, 1678, 1678, 1678, 1678, 1678, 1678, 1678, 1678, 1678, 1678, 1678, 1678, 1678, 1678, 1678, 1678, 1678, 1678, 1678, 1678, 1678, 1678, 1678, 1678, 1678, 1678, 1678, 1678, 1678, 1678, 1678, 1678, 1678, 1678, 1678, 1678, 1678]","[1010, 1010, 1010, 1010, 1010, 1010, 1009, 996, 973, 938, 827, 766, 702, 636, 528, 472, 424, 381, 307, 267, 236, 210, 171, 159, 139, 128, 111, 105, 98, 94, 89, 86, 84, 83, 80, 77, 74, 71, 67, 67, 64, 64, 64, 64, 64, 64, 64, 64, 64, 64, 64, 64, 64, 64, 64, 64, 64, 64, 64, 64, 64, 64, 64, 64, 64, 64, 64, 64, 64, 64, 64, 64, 64, 64, 64, 64, 64, 64, 64, 64, 64, 64, 64, 64, 64, 64, 64, 64, 64, 64, 64, 64, 64, 64, 64, 64, 64, 64, 64, 64, 64, 64, 64]"
"Trust","Teilnehmer A hat Ihnen 2 Punkte übermittelt.","Payback","1","undefined","11","0","3","60","1080","111","5","1","534","0","legacy","[11, 21, 31, 41, 51, 61, 71, 81, 91, 101, 111, 121, 131, 141, 151, 161, 171, 181, 191, 201, 211, 221, 231, 241, 251, 261, 271, 281, 291, 301, 311, 321, 331, 341, 351, 361, 371, 381, 391, 401, 411, 421, 431, 441, 451, 461, 471, 481, 491, 501, 511, 521, 531]","1126","1920","[960, 960, 961, 961, 961, 961, 961, 965, 973, 988, 1043, 1080, 1119, 1167, 1271, 1324, 1367, 1414, 1496, 1532, 1559, 1583, 1625, 1643, 1658, 1671, 1693, 1699, 1706, 1710, 1720, 1722, 1724, 1725, 1728, 1730, 1731, 1734, 1741, 1742, 1745, 1746, 1751, 1753, 1755, 1756, 1758, 1758, 1758, 1758, 1758, 1758, 1758]","[1011, 1011, 1011, 1011, 1011, 1011, 1011, 1006, 995, 977, 911, 863, 821, 767, 656, 597, 551, 502, 416, 376, 339, 308, 254, 231, 211, 194, 162, 151, 139, 131, 116, 111, 108, 105, 102, 98, 96, 92, 82, 80, 76, 74, 66, 63, 61, 57, 54, 54, 53, 53, 53, 53, 53]"
"Promise","Wie oft werden Sie die Hälfte zurückgeben?","Promise","1","undefined","11","0","4","60","1080","121","5","1","496","0","legacy","[11, 21, 31, 41, 51, 61, 71, 81, 91, 101, 111, 121, 131, 141, 151, 161, 171, 181, 191, 201, 211, 221, 231, 241, 251, 261, 271, 281, 291, 301, 311, 321, 331, 341, 351, 361, 371, 381, 391, 401, 411, 421, 431, 441, 451, 461, 471, 481, 491]","1126","1920","[960, 960, 960, 960, 960, 960, 960, 960, 961, 968, 981, 1033, 1065, 1107, 1155, 1269, 1329, 1380, 1445, 1537, 1577, 1612, 1637, 1688, 1701, 1715, 1724, 1734, 1738, 1740, 1742, 1742, 1742, 1742, 1742, 1742, 1742, 1744, 1746, 1750, 1752, 1752, 1752, 1753, 1753, 1753, 1753, 1753, 1753]","[1010, 1010, 1010, 1010, 1010, 1010, 1010, 1010, 1008, 993, 966, 881, 836, 788, 732, 622, 562, 511, 448, 348, 298, 260, 221, 154, 132, 110, 94, 77, 73, 69, 68, 68, 68, 68, 68, 68, 68, 67, 65, 64, 63, 63, 63, 63, 63, 63, 63, 63, 63]"
"Trust","Teilnehmer A hat Ihnen 2 Punkte übermittelt.","Payback","1","undefined","12","0","4","60","1080","141","5","1","662","0","legacy","[11, 21, 31, 41, 51, 61, 71, 81, 91, 101, 111, 121, 131, 141, 151, 161, 171, 181, 191, 201, 211, 221, 231, 241, 251, 261, 271, 281, 291, 301, 311, 321, 331, 341, 351, 361, 371, 381, 391, 401, 411, 421, 431, 441, 451, 461, 471, 481, 491, 501, 511, 521, 531, 541, 551, 561, 571, 581, 591, 601, 611, 621, 631, 641, 651, 661]","1126","1920","[960, 960, 960, 960, 960, 960, 960, 960, 963, 967, 983, 998, 1020, 1069, 1190, 1281, 1378, 1496, 1717, 1824, 1909, 1919, 1919, 1919, 1919, 1919, 1919, 1919, 1919, 1919, 1919, 1919, 1919, 1919, 1919, 1919, 1919, 1918, 1916, 1915, 1914, 1914, 1910, 1908, 1908, 1907, 1903, 1900, 1895, 1889, 1876, 1865, 1857, 1849, 1835, 1832, 1831, 1829, 1828, 1827, 1827, 1827, 1827, 1827, 1827, 1827]","[1010, 1010, 1010, 1010, 1010, 1010, 1010, 1011, 1011, 1008, 990, 974, 947, 905, 800, 734, 671, 606, 491, 437, 386, 339, 253, 220, 192, 172, 144, 134, 129, 125, 124, 124, 124, 124, 124, 124, 124, 123, 123, 123, 123, 123, 125, 126, 126, 126, 127, 128, 129, 131, 134, 135, 135, 135, 135, 135, 135, 135, 136, 136, 136, 136, 136, 136, 136, 136]"
"Trust","Teilnehmer A hat Ihnen 2 Punkte übermittelt.","Payback","1","undefined","13","0","4","60","1080","141","5","1","676","0","legacy","[11, 21, 31, 41, 51, 61, 71, 81, 91, 101, 111, 121, 131, 141, 151, 161, 171, 181, 191, 201, 211, 221, 231, 241, 251, 261, 271, 281, 291, 301, 311, 321, 331, 341, 351, 361, 371, 381, 391, 401, 411, 421, 431, 441, 451, 461, 471, 481, 491, 501, 511, 521, 531, 541, 551, 561, 571, 581, 591, 601, 611, 621, 631, 641, 651, 661, 671]","1126","1920","[960, 960, 960, 960, 960, 960, 960, 960, 960, 962, 967, 976, 991, 1035, 1074, 1112, 1156, 1259, 1307, 1361, 1408, 1507, 1554, 1597, 1630, 1680, 1701, 1717, 1726, 1742, 1745, 1748, 1749, 1751, 1751, 1751, 1751, 1753, 1753, 1753, 1753, 1756, 1756, 1756, 1757, 1761, 1766, 1769, 1777, 1795, 1805, 1816, 1827, 1843, 1850, 1856, 1860, 1866, 1868, 1871, 1872, 1874, 1874, 1874, 1874, 1874, 1874]","[1010, 1010, 1010, 1010, 1010, 1010, 1010, 1010, 1010, 1010, 1003, 992, 974, 926, 884, 843, 802, 719, 680, 637, 600, 518, 485, 451, 426, 384, 364, 348, 338, 318, 312, 306, 301, 295, 295, 294, 294, 289, 288, 286, 283, 279, 276, 274, 271, 258, 247, 233, 218, 172, 143, 119, 96, 48, 25, 8, 0, 0, 0, 0, 0, 0, 0, 0, 0, 0, 0]"
"Trust","Teilnehmer A hat Ihnen 2 Punkte übermittelt.","Payback","1","undefined","14","0","4","60","1080","101","5","1","486","0","legacy","[11, 21, 31, 41, 51, 61, 71, 81, 91, 101, 111, 121, 131, 141, 151, 161, 171, 181, 191, 201, 211, 221, 231, 241, 251, 261, 271, 281, 291, 301, 311, 321, 331, 341, 351, 361, 371, 381, 391, 401, 411, 421, 431, 441, 451, 461, 471, 481]","1126","1920","[960, 960, 960, 960, 960, 960, 967, 977, 996, 1025, 1115, 1159, 1210, 1261, 1365, 1413, 1459, 1508, 1592, 1625, 1650, 1675, 1715, 1729, 1737, 1748, 1761, 1765, 1768, 1769, 1770, 1770, 1770, 1770, 1770, 1770, 1771, 1772, 1773, 1773, 1773, 1773, 1773, 1773, 1773, 1773, 1773, 1773]","[1010, 1010, 1010, 1010, 1010, 1010, 1005, 990, 962, 928, 821, 757, 687, 621, 494, 441, 392, 345, 263, 226, 200, 171, 124, 108, 98, 83, 65, 59, 54, 53, 51, 51, 51, 51, 51, 51, 50, 48, 47, 47, 47, 47, 47, 47, 47, 47, 47, 47]"
"Promise","Wie oft werden Sie die Hälfte zurückgeben?","Promise","1","undefined","14","0","5","60","1080","131","5","1","640","0","legacy","[11, 21, 31, 41, 51, 61, 71, 81, 91, 101, 111, 121, 131, 141, 151, 161, 171, 181, 191, 201, 211, 221, 231, 241, 251, 261, 271, 281, 291, 301, 311, 321, 331, 341, 351, 361, 371, 381, 391, 401, 411, 421, 431, 441, 451, 461, 471, 481, 491, 501, 511, 521, 531, 541, 551, 561, 571, 581, 591, 601, 611, 621, 631]","1126","1920","[960, 960, 960, 960, 960, 960, 960, 960, 960, 962, 969, 994, 1016, 1054, 1094, 1171, 1205, 1237, 1275, 1352, 1398, 1442, 1489, 1562, 1589, 1613, 1628, 1650, 1656, 1660, 1661, 1662, 1662, 1662, 1662, 1662, 1662, 1662, 1662, 1662, 1662, 1662, 1662, 1662, 1662, 1662, 1662, 1662, 1662, 1662, 1662, 1662, 1662, 1662, 1662, 1662, 1662, 1662, 1663, 1666, 1666, 1666, 1666]","[1010, 1010, 1010, 1010, 1010, 1010, 1010, 1010, 1011, 1010, 1003, 970, 936, 886, 833, 722, 664, 604, 549, 441, 374, 310, 244, 146, 107, 76, 58, 32, 24, 17, 17, 14, 14, 14, 14, 14, 14, 14, 14, 14, 14, 14, 14, 14, 14, 14, 14, 14, 14, 14, 14, 14, 14, 14, 14, 14, 14, 14, 14, 19, 19, 19, 19]"
"NoTrust","Teilnehmer A hat Ihnen keine 2 Punkte übermittelt.","Payback","1","undefined","15","0","5","60","1080","131","0","1","640","0","legacy","[11, 21, 31, 41, 51, 61, 71, 81, 91, 101, 111, 121, 131, 141, 151, 161, 171, 181, 191, 201, 211, 221, 231, 241, 251, 261, 271, 281, 291, 301, 311, 321, 331, 341, 351, 361, 371, 381, 391, 401, 411, 421, 431, 441, 451, 461, 471, 481, 491, 501, 511, 521, 531, 541, 551, 561, 571, 581, 591, 601, 611, 621, 631]","1126","1920","[960, 960, 960, 960, 960, 960, 960, 960, 960, 962, 969, 994, 1016, 1054, 1094, 1171, 1205, 1237, 1275, 1352, 1398, 1442, 1489, 1562, 1589, 1613, 1628, 1650, 1656, 1660, 1661, 1662, 1662, 1662, 1662, 1662, 1662, 1662, 1662, 1662, 1662, 1662, 1662, 1662, 1662, 1662, 1662, 1662, 1662, 1662, 1662, 1662, 1662, 1662, 1662, 1662, 1662, 1662, 1663, 1666, 1666, 1666, 1666]","[1010, 1010, 1010, 1010, 1010, 1010, 1010, 1010, 1011, 1010, 1003, 970, 936, 886, 833, 722, 664, 604, 549, 441, 374, 310, 244, 146, 107, 76, 58, 32, 24, 17, 17, 14, 14, 14, 14, 14, 14, 14, 14, 14, 14, 14, 14, 14, 14, 14, 14, 14, 14, 14, 14, 14, 14, 14, 14, 14, 14, 14, 14, 19, 19, 19, 19]"
"Trust","Teilnehmer A hat Ihnen 2 Punkte übermittelt.","Payback","1","undefined","16","0","5","60","1080","111","5","1","652","0","legacy","[11, 21, 31, 41, 51, 61, 71, 81, 91, 101, 111, 121, 131, 141, 151, 161, 171, 181, 191, 201, 211, 221, 231, 241, 251, 261, 271, 281, 291, 301, 311, 321, 331, 341, 351, 361, 371, 381, 391, 401, 411, 421, 431, 441, 451, 461, 471, 481, 491, 501, 511, 521, 531, 541, 551, 561, 571, 581, 591, 601, 611, 621, 631, 641, 651]","1126","1920","[960, 960, 960, 960, 960, 960, 960, 960, 962, 990, 1013, 1051, 1092, 1179, 1223, 1269, 1315, 1402, 1438, 1470, 1490, 1516, 1523, 1531, 1534, 1541, 1543, 1545, 1546, 1548, 1548, 1548, 1548, 1548, 1548, 1548, 1548, 1551, 1551, 1553, 1554, 1559, 1565, 1573, 1583, 1605, 1618, 1629, 1640, 1665, 1677, 1687, 1694, 1707, 1711, 1713, 1717, 1721, 1724, 1725, 1726, 1726, 1726, 1726, 1726]","[1010, 1010, 1010, 1010, 1010, 1010, 1010, 1010, 1007, 960, 921, 869, 813, 696, 632, 571, 504, 387, 345, 308, 282, 251, 243, 231, 225, 213, 208, 206, 204, 202, 201, 201, 201, 201, 201, 201, 200, 195, 194, 192, 190, 185, 180, 175, 168, 155, 148, 141, 138, 126, 120, 116, 113, 108, 106, 105, 103, 101, 99, 99, 99, 99, 99, 99, 99]"
"Trust","Teilnehmer A hat Ihnen 2 Punkte übermittelt.","Payback","1","undefined","17","0","5","60","1080","121","5","1","478","0","legacy","[11, 21, 31, 41, 51, 61, 71, 81, 91, 101, 111, 121, 131, 141, 151, 161, 171, 181, 191, 201, 211, 221, 231, 241, 251, 261, 271, 281, 291, 301, 311, 321, 331, 341, 351, 361, 371, 381, 391, 401, 411, 421, 431, 441, 451, 461, 471]","1126","1920","[960, 960, 960, 960, 960, 960, 960, 960, 960, 962, 994, 1027, 1063, 1111, 1231, 1295, 1359, 1422, 1517, 1560, 1595, 1630, 1673, 1686, 1697, 1702, 1710, 1711, 1711, 1712, 1712, 1712, 1712, 1712, 1712, 1712, 1712, 1712, 1713, 1713, 1713, 1713, 1713, 1713, 1713, 1713, 1713]","[1010, 1010, 1010, 1010, 1010, 1010, 1010, 1010, 1010, 1006, 963, 916, 863, 802, 664, 586, 510, 430, 302, 246, 198, 163, 111, 94, 80, 73, 63, 61, 60, 59, 59, 59, 59, 59, 59, 59, 59, 59, 59, 59, 58, 58, 58, 58, 58, 58, 58]"
"Promise","Wie oft werden Sie die Hälfte zurückgeben?","Promise","1","undefined","17","0","6","60","1080","161","5","1","568","0","legacy","[11, 21, 31, 41, 51, 61, 71, 81, 91, 101, 111, 121, 131, 141, 151, 161, 171, 181, 191, 201, 211, 221, 231, 241, 251, 261, 271, 281, 291, 301, 311, 321, 331, 341, 351, 361, 371, 381, 391, 401, 411, 421, 431, 441, 451, 461, 471, 481, 491, 501, 511, 521, 531, 541, 551, 561]","1126","1920","[960, 960, 960, 960, 960, 960, 960, 960, 960, 960, 960, 960, 962, 970, 984, 1039, 1069, 1105, 1144, 1230, 1273, 1322, 1368, 1458, 1494, 1527, 1556, 1590, 1601, 1609, 1615, 1623, 1627, 1630, 1632, 1638, 1640, 1644, 1647, 1656, 1660, 1664, 1665, 1667, 1667, 1668, 1670, 1676, 1678, 1681, 1683, 1684, 1684, 1684, 1684, 1684]","[1010, 1010, 1010, 1010, 1010, 1010, 1010, 1010, 1010, 1010, 1010, 1005, 996, 983, 960, 880, 838, 788, 740, 628, 575, 528, 480, 390, 350, 312, 276, 232, 216, 204, 193, 173, 165, 158, 155, 145, 142, 135, 131, 122, 117, 113, 112, 109, 109, 107, 105, 99, 97, 94, 93, 91, 91, 91, 91, 91]"
"Trust","Teilnehmer A hat Ihnen 2 Punkte übermittelt.","Payback","1","undefined","18","0","6","60","1080","121","5","1","598","0","legacy","[11, 21, 31, 41, 51, 61, 71, 81, 91, 101, 111, 121, 131, 141, 151, 161, 171, 181, 191, 201, 211, 221, 231, 241, 251, 261, 271, 281, 291, 301, 311, 321, 331, 341, 351, 361, 371, 381, 391, 401, 411, 421, 431, 441, 451, 461, 471, 481, 491, 501, 511, 521, 531, 541, 551, 561, 571, 581, 591]","1126","1920","[960, 960, 960, 960, 960, 960, 960, 962, 967, 975, 1010, 1047, 1092, 1139, 1261, 1324, 1378, 1423, 1505, 1539, 1565, 1588, 1624, 1638, 1644, 1647, 1652, 1654, 1654, 1655, 1655, 1655, 1655, 1655, 1655, 1655, 1655, 1655, 1655, 1655, 1656, 1656, 1663, 1668, 1674, 1680, 1694, 1699, 1703, 1707, 1713, 1714, 1716, 1716, 1716, 1716, 1716, 1716, 1716]","[1010, 1010, 1010, 1010, 1010, 1010, 1010, 1010, 1006, 996, 954, 911, 860, 804, 686, 626, 572, 518, 417, 377, 346, 317, 266, 244, 233, 224, 212, 209, 207, 205, 203, 203, 203, 203, 203, 203, 203, 203, 203, 203, 202, 202, 190, 182, 172, 161, 145, 137, 130, 124, 113, 111, 108, 106, 106, 106, 106, 106, 106]"
"Trust","Teilnehmer A hat Ihnen 2 Punkte übermittelt.","Payback","1","undefined","19","0","6","60","1080","131","5","1","660","0","legacy","[11, 21, 31, 41, 51, 61, 71, 81, 91, 101, 111, 121, 131, 141, 151, 161, 171, 181, 191, 201, 211, 221, 231, 241, 251, 261, 271, 281, 291, 301, 311, 321, 331, 341, 351, 361, 371, 381, 391, 401, 411, 421, 431, 441, 451, 461, 471, 481, 491, 501, 511, 521, 531, 541, 551, 561, 571, 581, 591, 601, 611, 621, 631, 641, 651]","1126","1920","[960, 960, 960, 960, 960, 960, 960, 960, 960, 977, 996, 1022, 1063, 1187, 1258, 1337, 1422, 1565, 1621, 1663, 1700, 1753, 1770, 1782, 1790, 1803, 1806, 1808, 1809, 1809, 1809, 1809, 1809, 1809, 1809, 1809, 1809, 1809, 1809, 1809, 1809, 1810, 1812, 1815, 1817, 1823, 1825, 1826, 1827, 1831, 1831, 1831, 1832, 1832, 1832, 1832, 1832, 1832, 1832, 1832, 1832, 1832, 1832, 1832, 1832]","[1010, 1010, 1010, 1010, 1010, 1010, 1010, 1010, 1011, 992, 971, 940, 899, 781, 710, 636, 554, 429, 386, 352, 320, 275, 255, 240, 228, 210, 203, 201, 198, 197, 197, 197, 197, 197, 197, 197, 197, 197, 197, 197, 197, 197, 195, 189, 181, 166, 158, 154, 148, 131, 126, 120, 114, 106, 103, 100, 98, 95, 94, 92, 92, 92, 92, 92, 92]"
"Trust","Teilnehmer A hat Ihnen 2 Punkte übermittelt.","Payback","1","undefined","20","0","6","60","1080","101","5","1","565","0","legacy","[11, 21, 31, 41, 51, 61, 71, 81, 91, 101, 111, 121, 131, 141, 151, 161, 171, 181, 191, 201, 211, 221, 231, 241, 251, 261, 271, 281, 291, 301, 311, 321, 331, 341, 351, 361, 371, 381, 391, 401, 411, 421, 431, 441, 451, 461, 471, 481, 491, 501, 511, 521, 531, 541, 551, 561]","1126","1920","[960, 960, 960, 960, 960, 962, 969, 981, 1000, 1034, 1124, 1175, 1231, 1291, 1412, 1467, 1519, 1564, 1641, 1669, 1691, 1714, 1740, 1750, 1762, 1772, 1785, 1791, 1794, 1797, 1798, 1798, 1798, 1798, 1798, 1798, 1798, 1798, 1798, 1798, 1798, 1798, 1798, 1797, 1794, 1790, 1782, 1780, 1776, 1772, 1765, 1762, 1761, 1760, 1759, 1759]","[1010, 1010, 1010, 1010, 1010, 1010, 1005, 989, 968, 931, 824, 757, 687, 612, 482, 422, 365, 312, 216, 169, 126, 88, 39, 18, 0, 0, 0, 0, 0, 0, 0, 0, 0, 0, 0, 0, 0, 0, 0, 0, 0, 0, 0, 4, 10, 16, 27, 32, 36, 41, 52, 56, 61, 62, 64, 64]"
"Promise","Wie oft werden Sie die Hälfte zurückgeben?","Promise","1","undefined","20","0","7","60","1080","131","5","1","784","0","legacy","[11, 21, 31, 41, 51, 61, 71, 81, 91, 101, 111, 121, 131, 141, 151, 161, 171, 181, 191, 201, 211, 221, 231, 241, 251, 261, 271, 281, 291, 301, 311, 321, 331, 341, 351, 361, 371, 381, 391, 401, 411, 421, 431, 441, 451, 461, 471, 481, 491, 501, 511, 521, 531, 541, 551, 561, 571, 581, 591, 601, 611, 621, 631, 641, 651, 661, 671, 681, 691, 701, 711, 721, 731, 741, 751, 761, 771, 781]","1126","1920","[960, 960, 960, 960, 960, 960, 960, 960, 961, 965, 971, 1009, 1040, 1082, 1138, 1261, 1334, 1398, 1463, 1576, 1624, 1664, 1696, 1738, 1751, 1758, 1764, 1770, 1773, 1774, 1776, 1777, 1777, 1778, 1778, 1778, 1778, 1778, 1778, 1778, 1778, 1778, 1780, 1781, 1782, 1785, 1785, 1786, 1787, 1789, 1791, 1792, 1793, 1793, 1793, 1794, 1794, 1794, 1794, 1794, 1794, 1794, 1794, 1794, 1794, 1794, 1794, 1794, 1794, 1794, 1794, 1794, 1794, 1794, 1794, 1794, 1794, 1794]","[1010, 1010, 1010, 1010, 1010, 1010, 1010, 1010, 1008, 1000, 990, 943, 909, 858, 793, 663, 604, 548, 495, 397, 355, 321, 291, 244, 227, 213, 202, 187, 183, 179, 176, 172, 171, 170, 170, 169, 169, 169, 169, 167, 166, 163, 157, 146, 139, 132, 128, 115, 110, 106, 101, 97, 93, 93, 92, 92, 92, 92, 92, 92, 92, 92, 92, 92, 92, 92, 92, 92, 92, 92, 92, 92, 92, 92, 92, 92, 92, 92]"
"Trust","Teilnehmer A hat Ihnen 2 Punkte übermittelt.","Payback","1","undefined","21","0","7","60","1080","121","5","1","589","0","legacy","[11, 21, 31, 41, 51, 61, 71, 81, 91, 101, 111, 121, 131, 141, 151, 161, 171, 181, 191, 201, 211, 221, 231, 241, 251, 261, 271, 281, 291, 301, 311, 321, 331, 341, 351, 361, 371, 381, 391, 401, 411, 421, 431, 441, 451, 461, 471, 481, 491, 501, 511, 521, 531, 541, 551, 561, 571, 581]","1126","1920","[960, 960, 960, 960, 960, 960, 960, 960, 960, 963, 996, 1029, 1075, 1118, 1230, 1286, 1342, 1393, 1468, 1500, 1527, 1557, 1597, 1611, 1625, 1632, 1642, 1645, 1647, 1650, 1651, 1652, 1652, 1652, 1652, 1652, 1652, 1652, 1654, 1654, 1655, 1656, 1657, 1657, 1657, 1657, 1658, 1659, 1661, 1663, 1671, 1676, 1679, 1683, 1684, 1684, 1684, 1684]","[1011, 1011, 1011, 1011, 1011, 1011, 1011, 1011, 1005, 995, 958, 923, 864, 806, 689, 624, 557, 493, 377, 335, 296, 256, 200, 178, 158, 147, 131, 126, 121, 116, 113, 113, 113, 113, 113, 113, 113, 112, 108, 106, 104, 101, 99, 99, 98, 98, 96, 94, 90, 86, 75, 71, 70, 67, 65, 65, 65, 65]"
"Trust","Teilnehmer A hat Ihnen 2 Punkte übermittelt.","Payback","1","undefined","22","0","7","60","1080","141","5","1","556","0","legacy","[11, 21, 31, 41, 51, 61, 71, 81, 91, 101, 111, 121, 131, 141, 151, 161, 171, 181, 191, 201, 211, 221, 231, 241, 251, 261, 271, 281, 291, 301, 311, 321, 331, 341, 351, 361, 371, 381, 391, 401, 411, 421, 431, 441, 451, 461, 471, 481, 491, 501, 511, 521, 531, 541, 551]","1126","1920","[960, 960, 960, 961, 961, 961, 961, 961, 961, 967, 974, 983, 997, 1063, 1113, 1167, 1234, 1378, 1458, 1536, 1611, 1755, 1819, 1876, 1919, 1919, 1919, 1919, 1919, 1919, 1919, 1919, 1919, 1919, 1919, 1919, 1919, 1919, 1918, 1913, 1910, 1901, 1894, 1888, 1885, 1874, 1872, 1868, 1866, 1866, 1864, 1864, 1864, 1864, 1864]","[1010, 1010, 1010, 1010, 1010, 1010, 1010, 1010, 1010, 1005, 1000, 991, 979, 927, 885, 840, 788, 685, 627, 573, 518, 422, 366, 316, 275, 196, 165, 142, 122, 92, 83, 77, 72, 69, 69, 69, 69, 69, 69, 70, 71, 76, 80, 83, 86, 93, 94, 95, 96, 97, 97, 97, 97, 97, 97]"
"Trust","Teilnehmer A hat Ihnen 2 Punkte übermittelt.","Payback","1","undefined","23","0","7","60","1080","121","5","1","549","0","legacy","[11, 21, 31, 41, 51, 61, 71, 81, 91, 101, 111, 121, 131, 141, 151, 161, 171, 181, 191, 201, 211, 221, 231, 241, 251, 261, 271, 281, 291, 301, 311, 321, 331, 341, 351, 361, 371, 381, 391, 401, 411, 421, 431, 441, 451, 461, 471, 481, 491, 501, 511, 521, 531, 541]","1126","1920","[960, 960, 960, 960, 960, 960, 960, 960, 960, 965, 1008, 1045, 1087, 1130, 1235, 1289, 1345, 1387, 1459, 1487, 1514, 1540, 1574, 1583, 1588, 1592, 1597, 1601, 1604, 1607, 1619, 1624, 1630, 1631, 1636, 1636, 1640, 1642, 1652, 1659, 1667, 1676, 1693, 1703, 1710, 1716, 1728, 1733, 1738, 1741, 1746, 1749, 1749, 1749]","[1010, 1010, 1011, 1011, 1011, 1011, 1011, 1011, 1011, 1004, 948, 900, 852, 793, 677, 613, 548, 495, 402, 370, 346, 323, 292, 282, 274, 270, 260, 255, 252, 247, 234, 227, 220, 219, 214, 213, 208, 205, 191, 182, 173, 163, 142, 134, 126, 119, 104, 98, 93, 88, 81, 77, 77, 76]"
CHF,TotCHF,final_payoff,sum
"5","25","[5, 0, 5, 0]","10"
