Condition,PromiseStage,Stage,accuracy,avg_rt,count_decision_sequence,count_loop1,count_trial_sequence,font_size,height,init_time,payoff,response,rt,subject_nr,synth_backend,tTrajectory,time_experiment,width,xTrajectory,yTrajectory
"Promise","Wie oft werden Sie die Hälfte zurückgeben?","Promise","1","undefined","NA","0","0","60","1080","511","NA","1","1472","0","legacy","[11, 21, 31, 41, 51, 61, 71, 81, 91, 101, 111, 121, 131, 141, 151, 161, 171, 181, 191, 201, 211, 221, 231, 241, 251, 261, 271, 281, 291, 301, 311, 321, 331, 341, 351, 361, 371, 381, 391, 401, 411, 421, 431, 441, 451, 461, 471, 481, 491, 501, 511, 521, 531, 541, 551, 561, 571, 581, 591, 601, 611, 621, 631, 641, 651, 661, 671, 681, 691, 701, 711, 721, 731, 741, 751, 761, 771, 781, 791, 801, 811, 821, 831, 841, 851, 861, 871, 881, 891, 901, 911, 921, 931, 941, 951, 961, 971, 981, 991, 1001, 1011, 1021, 1031, 1041, 1051, 1061, 1071, 1081, 1091, 1101, 1111, 1121, 1131, 1141, 1151, 1161, 1171, 1181, 1191, 1201, 1211, 1221, 1231, 1241, 1251, 1261, 1271, 1281, 1291, 1301, 1311, 1321, 1331, 1341, 1351, 1361, 1371, 1381, 1391, 1401, 1411, 1421, 1431, 1441, 1451, 1461, 1471]","1069","1920","[960, 960, 960, 960, 960, 960, 960, 960, 960, 960, 960, 960, 960, 960, 960, 960, 960, 960, 960, 960, 960, 960, 960, 960, 960, 960, 960, 960, 960, 960, 960, 960, 960, 960, 961, 962, 964, 965, 966, 970, 973, 976, 978, 985, 990, 995, 1000, 1014, 1023, 1032, 1040, 1054, 1059, 1065, 1070, 1079, 1083, 1087, 1093, 1105, 1111, 1114, 1121, 1133, 1139, 1147, 1153, 1167, 1176, 1183, 1191, 1205, 1212, 1219, 1224, 1235, 1240, 1246, 1253, 1264, 1271, 1278, 1287, 1308, 1320, 1335, 1345, 1367, 1373, 1382, 1390, 1409, 1418, 1428, 1442, 1464, 1474, 1485, 1497, 1517, 1524, 1531, 1542, 1559, 1566, 1574, 1582, 1595, 1602, 1607, 1614, 1625, 1631, 1634, 1638, 1645, 1649, 1652, 1657, 1668, 1672, 1676, 1678, 1685, 1688, 1692, 1694, 1702, 1704, 1708, 1710, 1714, 1717, 1718, 1720, 1727, 1730, 1732, 1736, 1740, 1740, 1740, 1741, 1741, 1741, 1741, 1741]","[1010, 1010, 1010, 1010, 1010, 1010, 1010, 1010, 1010, 1010, 1010, 1010, 1010, 1010, 1010, 1010, 1010, 1010, 1010, 1010, 1010, 1010, 1010, 1010, 1010, 1010, 1010, 1010, 1010, 1010, 1010, 1010, 1010, 1010, 1010, 1009, 1006, 1005, 1003, 1000, 995, 993, 990, 981, 976, 969, 964, 953, 947, 940, 934, 924, 921, 915, 911, 904, 900, 897, 893, 885, 880, 877, 872, 861, 856, 851, 847, 837, 830, 825, 820, 808, 800, 794, 789, 777, 771, 765, 757, 742, 734, 726, 716, 699, 688, 678, 669, 651, 642, 633, 623, 599, 585, 571, 551, 518, 506, 486, 470, 439, 425, 414, 396, 371, 361, 348, 336, 313, 302, 292, 282, 261, 251, 244, 234, 218, 208, 200, 192, 176, 170, 164, 160, 150, 147, 142, 139, 131, 127, 124, 122, 119, 117, 115, 114, 110, 108, 106, 104, 101, 100, 100, 99, 99, 99, 99, 99]"
Cond,DecisionB,Stage,accuracy,avg_rt,count_decision_sequence,count_loop1,count_trial_sequence,font_size,height,init_time,payoff,response,rt,subject_nr,synth_backend,tTrajectory,time_experiment,width,xTrajectory,yTrajectory
"Trust","Teilnehmer A hat Ihnen 2 Punkte übermittelt.","Payback","1","undefined","0","0","0","60","1080","381","5","1","1551","0","legacy","[11, 21, 31, 41, 51, 61, 71, 81, 91, 101, 111, 121, 131, 141, 151, 161, 171, 181, 191, 201, 211, 221, 231, 241, 251, 261, 271, 281, 291, 301, 311, 321, 331, 341, 351, 361, 371, 381, 391, 401, 411, 421, 431, 441, 451, 461, 471, 481, 491, 501, 511, 521, 531, 541, 551, 561, 571, 581, 591, 601, 611, 621, 631, 641, 651, 661, 671, 681, 691, 701, 711, 721, 731, 741, 751, 761, 771, 781, 791, 801, 811, 821, 831, 841, 851, 861, 871, 881, 891, 901, 911, 921, 931, 941, 951, 961, 971, 981, 991, 1001, 1011, 1021, 1031, 1041, 1051, 1061, 1071, 1081, 1091, 1101, 1111, 1121, 1131, 1141, 1151, 1161, 1171, 1181, 1191, 1201, 1211, 1221, 1231, 1241, 1251, 1261, 1271, 1281, 1291, 1301, 1311, 1321, 1331, 1341, 1351, 1361, 1371, 1381, 1391, 1401, 1411, 1421, 1431, 1441, 1451, 1461, 1471, 1481, 1491, 1501, 1511, 1521, 1531, 1541]","1069","1920","[960, 960, 960, 960, 960, 960, 960, 960, 960, 960, 960, 960, 960, 960, 960, 960, 960, 960, 960, 960, 960, 960, 960, 960, 960, 960, 960, 960, 960, 960, 960, 967, 970, 975, 980, 993, 1000, 1007, 1020, 1028, 1033, 1041, 1049, 1062, 1068, 1074, 1083, 1099, 1107, 1117, 1130, 1152, 1159, 1165, 1172, 1181, 1186, 1192, 1201, 1205, 1210, 1214, 1223, 1226, 1230, 1235, 1243, 1246, 1251, 1255, 1259, 1266, 1272, 1276, 1285, 1290, 1294, 1300, 1308, 1313, 1319, 1323, 1337, 1344, 1351, 1357, 1374, 1382, 1388, 1395, 1406, 1409, 1411, 1415, 1421, 1424, 1426, 1429, 1434, 1437, 1439, 1443, 1451, 1455, 1458, 1460, 1467, 1470, 1473, 1476, 1482, 1489, 1496, 1505, 1524, 1534, 1545, 1556, 1580, 1593, 1605, 1617, 1632, 1638, 1644, 1649, 1657, 1665, 1671, 1676, 1687, 1694, 1700, 1706, 1711, 1715, 1717, 1718, 1724, 1724, 1725, 1726, 1727, 1727, 1727, 1727, 1727, 1727, 1727, 1727, 1727, 1727, 1727, 1727]","[1010, 1010, 1010, 1010, 1010, 1010, 1010, 1010, 1010, 1010, 1010, 1010, 1010, 1010, 1010, 1010, 1010, 1010, 1010, 1010, 1010, 1010, 1010, 1010, 1010, 1010, 1010, 1010, 1010, 1009, 1005, 991, 984, 976, 969, 951, 945, 937, 923, 914, 908, 901, 892, 877, 869, 862, 852, 831, 822, 807, 789, 758, 748, 738, 729, 714, 705, 696, 679, 672, 664, 657, 642, 634, 630, 622, 611, 607, 600, 594, 589, 577, 569, 563, 550, 544, 538, 530, 517, 511, 503, 498, 482, 474, 466, 457, 438, 429, 422, 413, 398, 393, 388, 382, 372, 368, 364, 357, 348, 343, 339, 332, 316, 308, 300, 296, 285, 281, 278, 276, 271, 267, 263, 257, 246, 242, 235, 229, 218, 211, 205, 198, 190, 186, 182, 178, 171, 168, 164, 161, 153, 147, 143, 139, 135, 134, 132, 131, 129, 128, 128, 127, 126, 126, 126, 125, 125, 125, 125, 125, 125, 125, 125, 125]"
"NoTrust","Teilnehmer A hat Ihnen keine 2 Punkte übermittelt.","Payback","1","undefined","1","0","0","60","1080","381","0","1","1551","0","legacy","[11, 21, 31, 41, 51, 61, 71, 81, 91, 101, 111, 121, 131, 141, 151, 161, 171, 181, 191, 201, 211, 221, 231, 241, 251, 261, 271, 281, 291, 301, 311, 321, 331, 341, 351, 361, 371, 381, 391, 401, 411, 421, 431, 441, 451, 461, 471, 481, 491, 501, 511, 521, 531, 541, 551, 561, 571, 581, 591, 601, 611, 621, 631, 641, 651, 661, 671, 681, 691, 701, 711, 721, 731, 741, 751, 761, 771, 781, 791, 801, 811, 821, 831, 841, 851, 861, 871, 881, 891, 901, 911, 921, 931, 941, 951, 961, 971, 981, 991, 1001, 1011, 1021, 1031, 1041, 1051, 1061, 1071, 1081, 1091, 1101, 1111, 1121, 1131, 1141, 1151, 1161, 1171, 1181, 1191, 1201, 1211, 1221, 1231, 1241, 1251, 1261, 1271, 1281, 1291, 1301, 1311, 1321, 1331, 1341, 1351, 1361, 1371, 1381, 1391, 1401, 1411, 1421, 1431, 1441, 1451, 1461, 1471, 1481, 1491, 1501, 1511, 1521, 1531, 1541]","1069","1920","[960, 960, 960, 960, 960, 960, 960, 960, 960, 960, 960, 960, 960, 960, 960, 960, 960, 960, 960, 960, 960, 960, 960, 960, 960, 960, 960, 960, 960, 960, 960, 967, 970, 975, 980, 993, 1000, 1007, 1020, 1028, 1033, 1041, 1049, 1062, 1068, 1074, 1083, 1099, 1107, 1117, 1130, 1152, 1159, 1165, 1172, 1181, 1186, 1192, 1201, 1205, 1210, 1214, 1223, 1226, 1230, 1235, 1243, 1246, 1251, 1255, 1259, 1266, 1272, 1276, 1285, 1290, 1294, 1300, 1308, 1313, 1319, 1323, 1337, 1344, 1351, 1357, 1374, 1382, 1388, 1395, 1406, 1409, 1411, 1415, 1421, 1424, 1426, 1429, 1434, 1437, 1439, 1443, 1451, 1455, 1458, 1460, 1467, 1470, 1473, 1476, 1482, 1489, 1496, 1505, 1524, 1534, 1545, 1556, 1580, 1593, 1605, 1617, 1632, 1638, 1644, 1649, 1657, 1665, 1671, 1676, 1687, 1694, 1700, 1706, 1711, 1715, 1717, 1718, 1724, 1724, 1725, 1726, 1727, 1727, 1727, 1727, 1727, 1727, 1727, 1727, 1727, 1727, 1727, 1727]","[1010, 1010, 1010, 1010, 1010, 1010, 1010, 1010, 1010, 1010, 1010, 1010, 1010, 1010, 1010, 1010, 1010, 1010, 1010, 1010, 1010, 1010, 1010, 1010, 1010, 1010, 1010, 1010, 1010, 1009, 1005, 991, 984, 976, 969, 951, 945, 937, 923, 914, 908, 901, 892, 877, 869, 862, 852, 831, 822, 807, 789, 758, 748, 738, 729, 714, 705, 696, 679, 672, 664, 657, 642, 634, 630, 622, 611, 607, 600, 594, 589, 577, 569, 563, 550, 544, 538, 530, 517, 511, 503, 498, 482, 474, 466, 457, 438, 429, 422, 413, 398, 393, 388, 382, 372, 368, 364, 357, 348, 343, 339, 332, 316, 308, 300, 296, 285, 281, 278, 276, 271, 267, 263, 257, 246, 242, 235, 229, 218, 211, 205, 198, 190, 186, 182, 178, 171, 168, 164, 161, 153, 147, 143, 139, 135, 134, 132, 131, 129, 128, 128, 127, 126, 126, 126, 125, 125, 125, 125, 125, 125, 125, 125, 125]"
"Trust","Teilnehmer A hat Ihnen 2 Punkte übermittelt.","Payback","1","undefined","2","0","0","60","1080","241","5","1","710","0","legacy","[11, 21, 31, 41, 51, 61, 71, 81, 91, 101, 111, 121, 131, 141, 151, 161, 171, 181, 191, 201, 211, 221, 231, 241, 251, 261, 271, 281, 291, 301, 311, 321, 331, 341, 351, 361, 371, 381, 391, 401, 411, 421, 431, 441, 451, 461, 471, 481, 491, 501, 511, 521, 531, 541, 551, 561, 571, 581, 591, 601, 611, 621, 631, 641, 651, 661, 671, 681, 691, 701]","1069","1920","[960, 960, 960, 960, 960, 960, 960, 960, 960, 960, 960, 960, 960, 960, 960, 960, 960, 960, 960, 960, 960, 963, 991, 1019, 1051, 1094, 1189, 1239, 1288, 1335, 1417, 1461, 1500, 1532, 1598, 1623, 1641, 1656, 1677, 1684, 1689, 1695, 1702, 1705, 1708, 1710, 1714, 1716, 1717, 1719, 1724, 1725, 1726, 1728, 1732, 1734, 1734, 1736, 1739, 1740, 1740, 1740, 1740, 1740, 1740, 1740, 1740, 1740, 1740, 1740]","[1010, 1010, 1010, 1010, 1010, 1010, 1010, 1010, 1010, 1010, 1010, 1010, 1010, 1010, 1010, 1010, 1010, 1010, 1010, 1010, 1003, 992, 948, 906, 859, 806, 695, 642, 588, 536, 443, 394, 346, 304, 225, 196, 173, 155, 128, 118, 109, 99, 84, 80, 75, 70, 61, 55, 53, 48, 39, 36, 33, 30, 25, 23, 22, 20, 17, 17, 17, 17, 17, 17, 17, 17, 17, 17, 17, 17]"
"Promise","Wie oft werden Sie die Hälfte zurückgeben?","Promise","1","undefined","2","0","1","60","1080","381","5","1","1024","0","legacy","[11, 21, 31, 41, 51, 61, 71, 81, 91, 101, 111, 121, 131, 141, 151, 161, 171, 181, 191, 201, 211, 221, 231, 241, 251, 261, 271, 281, 291, 301, 311, 321, 331, 341, 351, 361, 371, 381, 391, 401, 411, 421, 431, 441, 451, 461, 471, 481, 491, 501, 511, 521, 531, 541, 551, 561, 571, 581, 591, 601, 611, 621, 631, 641, 651, 661, 671, 681, 691, 701, 711, 721, 731, 741, 751, 761, 771, 781, 791, 801, 811, 821, 831, 841, 851, 861, 871, 881, 891, 901, 911, 921, 931, 941, 951, 961, 971, 981, 991, 1001, 1011, 1021]","1069","1920","[960, 960, 960, 960, 960, 960, 960, 960, 960, 960, 960, 960, 960, 960, 960, 960, 960, 960, 960, 960, 960, 960, 960, 960, 960, 960, 960, 960, 960, 960, 960, 959, 960, 963, 967, 973, 981, 995, 1005, 1024, 1033, 1044, 1056, 1079, 1094, 1108, 1123, 1154, 1170, 1183, 1201, 1235, 1258, 1282, 1303, 1356, 1380, 1401, 1424, 1458, 1472, 1482, 1491, 1509, 1518, 1527, 1539, 1561, 1577, 1586, 1599, 1621, 1629, 1635, 1641, 1654, 1662, 1671, 1675, 1693, 1698, 1703, 1708, 1717, 1721, 1726, 1731, 1742, 1748, 1753, 1758, 1767, 1770, 1773, 1774, 1774, 1774, 1774, 1774, 1774, 1774, 1774]","[1010, 1010, 1010, 1010, 1010, 1010, 1010, 1010, 1010, 1010, 1010, 1010, 1010, 1010, 1010, 1010, 1010, 1010, 1010, 1010, 1010, 1010, 1010, 1010, 1010, 1010, 1010, 1010, 1010, 1010, 1010, 1010, 1006, 999, 992, 969, 950, 921, 895, 853, 835, 811, 792, 756, 736, 716, 699, 663, 647, 634, 617, 586, 566, 542, 516, 467, 447, 428, 409, 377, 365, 353, 344, 325, 316, 307, 298, 280, 270, 263, 255, 240, 234, 231, 226, 219, 215, 209, 206, 192, 188, 183, 178, 167, 163, 157, 150, 139, 132, 124, 117, 103, 98, 95, 92, 90, 89, 89, 89, 89, 89, 89]"
"Trust","Teilnehmer A hat Ihnen 2 Punkte übermittelt.","Payback","1","undefined","3","0","1","60","1080","231","5","1","1253","0","legacy","[11, 21, 31, 41, 51, 61, 71, 81, 91, 101, 111, 121, 131, 141, 151, 161, 171, 181, 191, 201, 211, 221, 231, 241, 251, 261, 271, 281, 291, 301, 311, 321, 331, 341, 351, 361, 371, 381, 391, 401, 411, 421, 431, 441, 451, 461, 471, 481, 491, 501, 511, 521, 531, 541, 551, 561, 571, 581, 591, 601, 611, 621, 631, 641, 651, 661, 671, 681, 691, 701, 711, 721, 731, 741, 751, 761, 771, 781, 791, 801, 811, 821, 831, 841, 851, 861, 871, 881, 891, 901, 911, 921, 931, 941, 951, 961, 971, 981, 991, 1001, 1011, 1021, 1031, 1041, 1051, 1061, 1071, 1081, 1091, 1101, 1111, 1121, 1131, 1141, 1151, 1161, 1171, 1181, 1191, 1201, 1211, 1221, 1231, 1241, 1251]","1069","1920","[960, 960, 960, 960, 960, 960, 960, 960, 960, 960, 960, 960, 960, 960, 960, 962, 964, 970, 982, 988, 997, 1003, 1020, 1027, 1034, 1044, 1060, 1071, 1084, 1097, 1121, 1131, 1141, 1152, 1179, 1195, 1208, 1226, 1257, 1268, 1280, 1292, 1311, 1322, 1328, 1338, 1354, 1363, 1372, 1385, 1409, 1424, 1438, 1450, 1472, 1482, 1492, 1501, 1520, 1529, 1536, 1542, 1555, 1561, 1569, 1575, 1589, 1595, 1601, 1606, 1619, 1629, 1638, 1645, 1662, 1671, 1678, 1687, 1699, 1706, 1712, 1716, 1729, 1735, 1737, 1741, 1751, 1756, 1759, 1760, 1763, 1763, 1764, 1766, 1767, 1768, 1769, 1769, 1770, 1770, 1770, 1770, 1770, 1770, 1770, 1770, 1770, 1770, 1770, 1770, 1770, 1770, 1770, 1770, 1770, 1770, 1770, 1770, 1770, 1770, 1770, 1770, 1770, 1770, 1770]","[1010, 1010, 1010, 1010, 1010, 1010, 1010, 1010, 1010, 1010, 1010, 1010, 1010, 1010, 1006, 1001, 996, 990, 974, 964, 952, 942, 913, 900, 887, 870, 841, 824, 802, 785, 744, 728, 709, 690, 648, 623, 606, 583, 543, 526, 509, 494, 466, 452, 441, 431, 409, 398, 387, 375, 354, 342, 331, 323, 306, 299, 291, 286, 272, 266, 261, 257, 246, 241, 234, 229, 220, 215, 211, 208, 198, 190, 184, 177, 165, 156, 149, 143, 132, 126, 119, 116, 104, 99, 96, 92, 81, 78, 75, 72, 68, 67, 65, 63, 60, 59, 58, 56, 54, 54, 54, 54, 54, 54, 54, 54, 54, 54, 54, 54, 54, 54, 54, 54, 54, 54, 54, 54, 54, 54, 54, 54, 54, 54, 54]"
"Trust","Teilnehmer A hat Ihnen 2 Punkte übermittelt.","Payback","1","undefined","4","0","1","60","1080","271","5","1","1031","0","legacy","[11, 21, 31, 41, 51, 61, 71, 81, 91, 101, 111, 121, 131, 141, 151, 161, 171, 181, 191, 201, 211, 221, 231, 241, 251, 261, 271, 281, 291, 301, 311, 321, 331, 341, 351, 361, 371, 381, 391, 401, 411, 421, 431, 441, 451, 461, 471, 481, 491, 501, 511, 521, 531, 541, 551, 561, 571, 581, 591, 601, 611, 621, 631, 641, 651, 661, 671, 681, 691, 701, 711, 721, 731, 741, 751, 761, 771, 781, 791, 801, 811, 821, 831, 841, 851, 861, 871, 881, 891, 901, 911, 921, 931, 941, 951, 961, 971, 981, 991, 1001, 1011, 1021, 1031]","1069","1920","[960, 960, 960, 960, 960, 960, 960, 960, 960, 960, 960, 960, 960, 960, 960, 960, 960, 960, 961, 963, 967, 971, 984, 995, 1001, 1011, 1039, 1057, 1071, 1086, 1124, 1143, 1160, 1184, 1237, 1259, 1283, 1299, 1320, 1326, 1333, 1337, 1347, 1348, 1350, 1352, 1352, 1355, 1359, 1360, 1362, 1371, 1377, 1386, 1392, 1411, 1420, 1428, 1440, 1460, 1474, 1483, 1494, 1516, 1523, 1533, 1544, 1562, 1574, 1584, 1596, 1615, 1622, 1629, 1636, 1648, 1652, 1655, 1659, 1664, 1670, 1671, 1674, 1681, 1683, 1688, 1691, 1697, 1698, 1701, 1704, 1707, 1711, 1714, 1717, 1726, 1730, 1733, 1735, 1736, 1736, 1736, 1736]","[1010, 1010, 1010, 1010, 1010, 1010, 1010, 1010, 1010, 1010, 1010, 1010, 1010, 1010, 1010, 1010, 1010, 1010, 1009, 1005, 1001, 996, 982, 971, 962, 951, 917, 897, 881, 861, 817, 796, 776, 745, 679, 653, 624, 606, 580, 570, 559, 553, 540, 537, 534, 532, 530, 527, 524, 523, 522, 514, 508, 501, 495, 476, 464, 455, 442, 423, 412, 404, 394, 370, 361, 347, 333, 307, 292, 276, 261, 235, 225, 216, 208, 194, 189, 186, 181, 173, 167, 165, 160, 151, 148, 143, 140, 134, 131, 128, 125, 120, 116, 113, 110, 101, 98, 95, 93, 92, 92, 92, 92]"
"Trust","Teilnehmer A hat Ihnen 2 Punkte übermittelt.","Payback","1","undefined","5","0","1","60","1080","271","5","1","1086","0","legacy","[11, 21, 31, 41, 51, 61, 71, 81, 91, 101, 111, 121, 131, 141, 151, 161, 171, 181, 191, 201, 211, 221, 231, 241, 251, 261, 271, 281, 291, 301, 311, 321, 331, 341, 351, 361, 371, 381, 391, 401, 411, 421, 431, 441, 451, 461, 471, 481, 491, 501, 511, 521, 531, 541, 551, 561, 571, 581, 591, 601, 611, 621, 631, 641, 651, 661, 671, 681, 691, 701, 711, 721, 731, 741, 751, 761, 771, 781, 791, 801, 811, 821, 831, 841, 851, 861, 871, 881, 891, 901, 911, 921, 931, 941, 951, 961, 971, 981, 991, 1001, 1011, 1021, 1031, 1041, 1051, 1061, 1071, 1081]","1069","1920","[960, 960, 960, 960, 960, 960, 960, 960, 960, 960, 960, 960, 960, 960, 960, 960, 960, 960, 960, 960, 960, 960, 971, 983, 1004, 1033, 1101, 1138, 1173, 1212, 1287, 1323, 1362, 1394, 1447, 1482, 1502, 1523, 1562, 1578, 1591, 1605, 1638, 1658, 1677, 1695, 1730, 1747, 1770, 1786, 1815, 1829, 1838, 1846, 1859, 1863, 1867, 1868, 1872, 1875, 1879, 1879, 1882, 1883, 1884, 1884, 1885, 1885, 1885, 1885, 1885, 1885, 1885, 1885, 1885, 1885, 1883, 1879, 1869, 1863, 1857, 1851, 1844, 1841, 1836, 1832, 1831, 1829, 1826, 1824, 1818, 1817, 1815, 1814, 1811, 1811, 1811, 1811, 1811, 1811, 1811, 1811, 1811, 1811, 1811, 1811, 1811, 1811]","[1010, 1010, 1010, 1010, 1010, 1010, 1010, 1010, 1010, 1010, 1010, 1010, 1010, 1010, 1010, 1010, 1010, 1010, 1010, 1010, 1010, 1010, 997, 988, 969, 943, 888, 859, 831, 804, 751, 725, 695, 667, 618, 587, 569, 550, 516, 502, 489, 473, 445, 427, 411, 392, 358, 337, 311, 293, 259, 244, 234, 225, 206, 197, 188, 181, 167, 160, 154, 149, 139, 132, 130, 127, 123, 123, 122, 122, 122, 122, 122, 122, 120, 118, 116, 113, 107, 105, 102, 100, 98, 97, 96, 94, 93, 93, 93, 93, 92, 92, 92, 92, 92, 92, 92, 92, 92, 92, 92, 92, 92, 92, 92, 92, 92, 92]"
"Promise","Wie oft werden Sie die Hälfte zurückgeben?","Promise","1","undefined","5","0","2","60","1080","241","5","1","909","0","legacy","[11, 21, 31, 41, 51, 61, 71, 81, 91, 101, 111, 121, 131, 141, 151, 161, 171, 181, 191, 201, 211, 221, 231, 241, 251, 261, 271, 281, 291, 301, 311, 321, 331, 341, 351, 361, 371, 381, 391, 401, 411, 421, 431, 441, 451, 461, 471, 481, 491, 501, 511, 521, 531, 541, 551, 561, 571, 581, 591, 601, 611, 621, 631, 641, 651, 661, 671, 681, 691, 701, 711, 721, 731, 741, 751, 761, 771, 781, 791, 801, 811, 821, 831, 841, 851, 861, 871, 881, 891, 901]","1069","1920","[960, 960, 960, 960, 960, 960, 960, 960, 960, 960, 960, 960, 960, 960, 960, 960, 960, 960, 970, 976, 984, 991, 1008, 1015, 1023, 1030, 1044, 1053, 1058, 1066, 1083, 1093, 1105, 1118, 1147, 1163, 1179, 1197, 1233, 1251, 1275, 1294, 1337, 1356, 1372, 1384, 1401, 1412, 1422, 1434, 1462, 1477, 1487, 1498, 1514, 1525, 1534, 1542, 1562, 1572, 1585, 1597, 1616, 1626, 1637, 1649, 1680, 1698, 1714, 1727, 1756, 1766, 1774, 1782, 1792, 1795, 1798, 1801, 1803, 1805, 1805, 1805, 1805, 1805, 1805, 1805, 1805, 1805, 1805, 1805]","[1010, 1010, 1010, 1010, 1010, 1010, 1010, 1010, 1010, 1010, 1010, 1010, 1010, 1010, 1010, 1010, 1010, 1009, 993, 983, 972, 963, 940, 930, 922, 913, 897, 888, 880, 870, 851, 839, 824, 807, 767, 744, 724, 701, 655, 632, 608, 589, 544, 526, 510, 495, 476, 464, 456, 446, 421, 409, 401, 389, 369, 357, 347, 335, 313, 301, 288, 277, 256, 244, 233, 221, 191, 178, 162, 149, 120, 110, 101, 92, 81, 77, 74, 70, 66, 65, 65, 64, 64, 64, 64, 64, 64, 64, 64, 64]"
"NoTrust","Teilnehmer A hat Ihnen keine 2 Punkte übermittelt.","Payback","1","undefined","6","0","2","60","1080","241","0","1","909","0","legacy","[11, 21, 31, 41, 51, 61, 71, 81, 91, 101, 111, 121, 131, 141, 151, 161, 171, 181, 191, 201, 211, 221, 231, 241, 251, 261, 271, 281, 291, 301, 311, 321, 331, 341, 351, 361, 371, 381, 391, 401, 411, 421, 431, 441, 451, 461, 471, 481, 491, 501, 511, 521, 531, 541, 551, 561, 571, 581, 591, 601, 611, 621, 631, 641, 651, 661, 671, 681, 691, 701, 711, 721, 731, 741, 751, 761, 771, 781, 791, 801, 811, 821, 831, 841, 851, 861, 871, 881, 891, 901]","1069","1920","[960, 960, 960, 960, 960, 960, 960, 960, 960, 960, 960, 960, 960, 960, 960, 960, 960, 960, 970, 976, 984, 991, 1008, 1015, 1023, 1030, 1044, 1053, 1058, 1066, 1083, 1093, 1105, 1118, 1147, 1163, 1179, 1197, 1233, 1251, 1275, 1294, 1337, 1356, 1372, 1384, 1401, 1412, 1422, 1434, 1462, 1477, 1487, 1498, 1514, 1525, 1534, 1542, 1562, 1572, 1585, 1597, 1616, 1626, 1637, 1649, 1680, 1698, 1714, 1727, 1756, 1766, 1774, 1782, 1792, 1795, 1798, 1801, 1803, 1805, 1805, 1805, 1805, 1805, 1805, 1805, 1805, 1805, 1805, 1805]","[1010, 1010, 1010, 1010, 1010, 1010, 1010, 1010, 1010, 1010, 1010, 1010, 1010, 1010, 1010, 1010, 1010, 1009, 993, 983, 972, 963, 940, 930, 922, 913, 897, 888, 880, 870, 851, 839, 824, 807, 767, 744, 724, 701, 655, 632, 608, 589, 544, 526, 510, 495, 476, 464, 456, 446, 421, 409, 401, 389, 369, 357, 347, 335, 313, 301, 288, 277, 256, 244, 233, 221, 191, 178, 162, 149, 120, 110, 101, 92, 81, 77, 74, 70, 66, 65, 65, 64, 64, 64, 64, 64, 64, 64, 64, 64]"
"Trust","Teilnehmer A hat Ihnen 2 Punkte übermittelt.","Payback","1","undefined","7","0","2","60","1080","301","5","1","899","0","legacy","[11, 21, 31, 41, 51, 61, 71, 81, 91, 101, 111, 121, 131, 141, 151, 161, 171, 181, 191, 201, 211, 221, 231, 241, 251, 261, 271, 281, 291, 301, 311, 321, 331, 341, 351, 361, 371, 381, 391, 401, 411, 421, 431, 441, 451, 461, 471, 481, 491, 501, 511, 521, 531, 541, 551, 561, 571, 581, 591, 601, 611, 621, 631, 641, 651, 661, 671, 681, 691, 701, 711, 721, 731, 741, 751, 761, 771, 781, 791, 801, 811, 821, 831, 841, 851, 861, 871, 881, 891]","1069","1920","[960, 960, 960, 960, 960, 960, 960, 960, 960, 960, 960, 960, 960, 960, 960, 960, 960, 960, 960, 960, 960, 960, 960, 960, 960, 967, 976, 987, 1001, 1045, 1067, 1094, 1131, 1194, 1229, 1266, 1300, 1370, 1406, 1433, 1460, 1500, 1517, 1528, 1536, 1552, 1559, 1564, 1569, 1578, 1578, 1580, 1582, 1584, 1586, 1587, 1589, 1592, 1596, 1599, 1603, 1610, 1613, 1619, 1621, 1628, 1633, 1640, 1646, 1658, 1665, 1671, 1676, 1683, 1687, 1690, 1692, 1698, 1699, 1700, 1702, 1704, 1704, 1704, 1704, 1704, 1704, 1704, 1704]","[1010, 1010, 1010, 1010, 1010, 1010, 1010, 1010, 1010, 1010, 1010, 1010, 1010, 1010, 1010, 1010, 1010, 1010, 1010, 1010, 1010, 1010, 1010, 1009, 1003, 989, 980, 965, 949, 897, 864, 825, 780, 691, 643, 598, 556, 476, 438, 411, 384, 342, 324, 311, 300, 283, 275, 268, 262, 248, 245, 239, 236, 228, 224, 222, 219, 213, 209, 204, 199, 188, 184, 177, 172, 162, 157, 151, 147, 138, 131, 127, 123, 116, 112, 108, 107, 103, 101, 100, 99, 96, 96, 96, 96, 96, 96, 96, 96]"
"Trust","Teilnehmer A hat Ihnen 2 Punkte übermittelt.","Payback","1","undefined","8","0","2","60","1080","261","5","1","940","0","legacy","[11, 21, 31, 41, 51, 61, 71, 81, 91, 101, 111, 121, 131, 141, 151, 161, 171, 181, 191, 201, 211, 221, 231, 241, 251, 261, 271, 281, 291, 301, 311, 321, 331, 341, 351, 361, 371, 381, 391, 401, 411, 421, 431, 441, 451, 461, 471, 481, 491, 501, 511, 521, 531, 541, 551, 561, 571, 581, 591, 601, 611, 621, 631, 641, 651, 661, 671, 681, 691, 701, 711, 721, 731, 741, 751, 761, 771, 781, 791, 801, 811, 821, 831, 841, 851, 861, 871, 881, 891, 901, 911, 921, 931]","1069","1920","[960, 960, 960, 960, 960, 960, 960, 960, 960, 960, 960, 960, 960, 960, 960, 960, 960, 960, 960, 960, 961, 968, 975, 981, 994, 1036, 1061, 1081, 1102, 1159, 1189, 1215, 1244, 1291, 1313, 1331, 1346, 1376, 1387, 1398, 1407, 1421, 1430, 1437, 1444, 1460, 1467, 1474, 1481, 1496, 1503, 1511, 1519, 1532, 1540, 1545, 1548, 1556, 1559, 1563, 1565, 1575, 1580, 1585, 1590, 1601, 1607, 1613, 1614, 1626, 1629, 1637, 1646, 1661, 1671, 1679, 1684, 1695, 1700, 1705, 1712, 1719, 1724, 1725, 1729, 1730, 1730, 1730, 1730, 1730, 1730, 1730, 1730]","[1010, 1010, 1010, 1010, 1010, 1010, 1010, 1010, 1010, 1010, 1010, 1010, 1010, 1010, 1010, 1010, 1010, 1010, 1010, 1010, 1009, 996, 988, 978, 957, 912, 883, 860, 838, 782, 750, 727, 700, 650, 626, 605, 587, 550, 535, 516, 505, 478, 462, 451, 438, 412, 400, 387, 376, 354, 345, 335, 326, 308, 297, 289, 282, 270, 264, 259, 255, 247, 242, 237, 231, 216, 209, 201, 197, 184, 180, 172, 165, 152, 144, 136, 132, 121, 116, 113, 106, 100, 96, 95, 91, 90, 90, 90, 90, 90, 90, 90, 90]"
"Promise","Wie oft werden Sie die Hälfte zurückgeben?","Promise","1","undefined","8","0","3","60","1080","321","5","1","1225","0","legacy","[11, 21, 31, 41, 51, 61, 71, 81, 91, 101, 111, 121, 131, 141, 151, 161, 171, 181, 191, 201, 211, 221, 231, 241, 251, 261, 271, 281, 291, 301, 311, 321, 331, 341, 351, 361, 371, 381, 391, 401, 411, 421, 431, 441, 451, 461, 471, 481, 491, 501, 511, 521, 531, 541, 551, 561, 571, 581, 591, 601, 611, 621, 631, 641, 651, 661, 671, 681, 691, 701, 711, 721, 731, 741, 751, 761, 771, 781, 791, 801, 811, 821, 831, 841, 851, 861, 871, 881, 891, 901, 911, 921, 931, 941, 951, 961, 971, 981, 991, 1001, 1011, 1021, 1031, 1041, 1051, 1061, 1071, 1081, 1091, 1101, 1111, 1121, 1131, 1141, 1151, 1161, 1171, 1181, 1191, 1201, 1211, 1221]","1069","1920","[960, 960, 960, 960, 960, 960, 960, 960, 960, 960, 960, 960, 960, 960, 960, 960, 960, 960, 960, 960, 960, 960, 960, 960, 960, 960, 961, 970, 978, 986, 998, 1028, 1041, 1060, 1078, 1117, 1133, 1152, 1168, 1201, 1214, 1230, 1242, 1257, 1276, 1287, 1296, 1303, 1316, 1323, 1328, 1334, 1342, 1347, 1352, 1357, 1368, 1374, 1378, 1383, 1390, 1396, 1400, 1405, 1415, 1422, 1428, 1434, 1448, 1456, 1464, 1471, 1488, 1494, 1502, 1512, 1527, 1535, 1545, 1552, 1567, 1572, 1577, 1582, 1594, 1596, 1599, 1604, 1607, 1609, 1609, 1609, 1610, 1611, 1612, 1613, 1613, 1614, 1616, 1616, 1620, 1626, 1632, 1638, 1653, 1655, 1661, 1669, 1679, 1684, 1688, 1692, 1696, 1696, 1696, 1696, 1696, 1696, 1696, 1696, 1696, 1696]","[1010, 1010, 1010, 1010, 1010, 1010, 1010, 1010, 1010, 1010, 1010, 1010, 1010, 1010, 1010, 1010, 1010, 1010, 1010, 1010, 1010, 1010, 1010, 1010, 1010, 1010, 1004, 992, 982, 971, 956, 913, 894, 868, 845, 794, 771, 746, 723, 678, 658, 636, 619, 592, 564, 547, 533, 520, 497, 485, 474, 464, 445, 438, 428, 419, 401, 393, 384, 378, 364, 357, 348, 342, 324, 315, 308, 299, 280, 271, 262, 253, 234, 225, 215, 204, 185, 176, 167, 159, 145, 140, 135, 130, 121, 119, 116, 112, 110, 108, 108, 108, 107, 106, 106, 105, 105, 105, 104, 104, 102, 100, 97, 95, 87, 84, 81, 77, 72, 70, 68, 66, 64, 64, 64, 64, 64, 64, 64, 64, 64, 64]"
"Trust","Teilnehmer A hat Ihnen 2 Punkte übermittelt.","Payback","1","undefined","9","0","3","60","1080","241","5","1","1012","0","legacy","[11, 21, 31, 41, 51, 61, 71, 81, 91, 101, 111, 121, 131, 141, 151, 161, 171, 181, 191, 201, 211, 221, 231, 241, 251, 261, 271, 281, 291, 301, 311, 321, 331, 341, 351, 361, 371, 381, 391, 401, 411, 421, 431, 441, 451, 461, 471, 481, 491, 501, 511, 521, 531, 541, 551, 561, 571, 581, 591, 601, 611, 621, 631, 641, 651, 661, 671, 681, 691, 701, 711, 721, 731, 741, 751, 761, 771, 781, 791, 801, 811, 821, 831, 841, 851, 861, 871, 881, 891, 901, 911, 921, 931, 941, 951, 961, 971, 981, 991, 1001, 1011]","1069","1920","[960, 960, 960, 960, 960, 960, 960, 960, 960, 960, 960, 960, 960, 960, 960, 960, 960, 965, 971, 980, 992, 1025, 1045, 1068, 1090, 1131, 1149, 1161, 1177, 1207, 1224, 1237, 1251, 1275, 1291, 1302, 1321, 1357, 1373, 1389, 1403, 1436, 1449, 1462, 1475, 1492, 1499, 1504, 1510, 1519, 1524, 1528, 1534, 1544, 1547, 1551, 1553, 1562, 1564, 1569, 1573, 1582, 1585, 1590, 1595, 1605, 1609, 1613, 1615, 1619, 1621, 1622, 1625, 1632, 1638, 1642, 1646, 1656, 1660, 1666, 1670, 1680, 1683, 1686, 1690, 1695, 1698, 1699, 1703, 1707, 1708, 1710, 1710, 1711, 1711, 1711, 1711, 1711, 1711, 1711, 1711]","[1010, 1010, 1010, 1010, 1010, 1010, 1010, 1010, 1010, 1010, 1010, 1010, 1010, 1010, 1010, 1010, 1010, 1009, 1004, 998, 989, 966, 953, 937, 921, 890, 873, 862, 848, 816, 796, 778, 759, 725, 702, 685, 660, 614, 591, 569, 549, 508, 495, 482, 469, 448, 439, 433, 424, 412, 404, 398, 391, 376, 368, 361, 354, 335, 328, 319, 313, 299, 292, 285, 278, 263, 256, 248, 245, 237, 232, 229, 222, 212, 205, 200, 192, 178, 174, 165, 160, 148, 144, 140, 135, 128, 125, 122, 118, 113, 112, 109, 109, 107, 107, 107, 107, 107, 107, 107, 107]"
"Trust","Teilnehmer A hat Ihnen 2 Punkte übermittelt.","Payback","1","undefined","10","0","3","60","1080","261","5","1","1068","0","legacy","[11, 21, 31, 41, 51, 61, 71, 81, 91, 101, 111, 121, 131, 141, 151, 161, 171, 181, 191, 201, 211, 221, 231, 241, 251, 261, 271, 281, 291, 301, 311, 321, 331, 341, 351, 361, 371, 381, 391, 401, 411, 421, 431, 441, 451, 461, 471, 481, 491, 501, 511, 521, 531, 541, 551, 561, 571, 581, 591, 601, 611, 621, 631, 641, 651, 661, 671, 681, 691, 701, 711, 721, 731, 741, 751, 761, 771, 781, 791, 801, 811, 821, 831, 841, 851, 861, 871, 881, 891, 901, 911, 921, 931, 941, 951, 961, 971, 981, 991, 1001, 1011, 1021, 1031, 1041, 1051, 1061]","1069","1920","[960, 960, 960, 960, 960, 960, 960, 960, 960, 960, 960, 960, 960, 960, 960, 960, 960, 960, 960, 960, 961, 967, 973, 978, 990, 1022, 1039, 1055, 1074, 1123, 1146, 1167, 1190, 1225, 1244, 1257, 1276, 1303, 1316, 1325, 1337, 1353, 1361, 1366, 1373, 1385, 1393, 1399, 1404, 1413, 1418, 1423, 1427, 1434, 1438, 1442, 1444, 1448, 1451, 1453, 1455, 1458, 1459, 1461, 1464, 1469, 1473, 1477, 1482, 1494, 1500, 1507, 1513, 1528, 1536, 1542, 1551, 1566, 1574, 1577, 1585, 1601, 1607, 1615, 1620, 1628, 1632, 1637, 1638, 1642, 1644, 1645, 1646, 1648, 1650, 1652, 1653, 1653, 1653, 1653, 1653, 1653, 1653, 1653, 1653, 1653]","[1010, 1010, 1010, 1010, 1010, 1010, 1010, 1010, 1010, 1010, 1010, 1010, 1010, 1010, 1010, 1010, 1010, 1010, 1010, 1010, 1009, 995, 985, 975, 960, 917, 892, 867, 841, 784, 755, 727, 698, 650, 625, 605, 582, 542, 525, 513, 496, 472, 459, 449, 440, 420, 410, 400, 390, 375, 365, 357, 351, 339, 333, 327, 322, 315, 310, 306, 304, 298, 296, 293, 288, 280, 275, 271, 265, 252, 246, 239, 233, 220, 215, 208, 200, 187, 182, 178, 171, 159, 153, 147, 142, 134, 131, 125, 123, 119, 117, 116, 115, 112, 111, 110, 109, 109, 109, 109, 109, 109, 109, 109, 109, 109]"
"Trust","Teilnehmer A hat Ihnen 2 Punkte übermittelt.","Payback","1","undefined","11","0","3","60","1080","291","5","1","1021","0","legacy","[11, 21, 31, 41, 51, 61, 71, 81, 91, 101, 111, 121, 131, 141, 151, 161, 171, 181, 191, 201, 211, 221, 231, 241, 251, 261, 271, 281, 291, 301, 311, 321, 331, 341, 351, 361, 371, 381, 391, 401, 411, 421, 431, 441, 451, 461, 471, 481, 491, 501, 511, 521, 531, 541, 551, 561, 571, 581, 591, 601, 611, 621, 631, 641, 651, 661, 671, 681, 691, 701, 711, 721, 731, 741, 751, 761, 771, 781, 791, 801, 811, 821, 831, 841, 851, 861, 871, 881, 891, 901, 911, 921, 931, 941, 951, 961, 971, 981, 991, 1001, 1011, 1021]","1069","1920","[960, 960, 960, 960, 960, 960, 960, 960, 960, 960, 960, 960, 960, 960, 960, 960, 960, 960, 960, 960, 960, 960, 968, 974, 982, 993, 1021, 1036, 1056, 1073, 1101, 1122, 1137, 1147, 1177, 1195, 1210, 1229, 1256, 1273, 1291, 1313, 1351, 1371, 1389, 1406, 1435, 1447, 1455, 1466, 1491, 1506, 1519, 1529, 1551, 1559, 1571, 1581, 1599, 1608, 1614, 1624, 1637, 1643, 1650, 1658, 1669, 1674, 1680, 1685, 1695, 1700, 1704, 1708, 1716, 1720, 1724, 1728, 1735, 1737, 1742, 1745, 1755, 1758, 1762, 1765, 1774, 1776, 1778, 1781, 1783, 1784, 1785, 1785, 1786, 1786, 1786, 1786, 1786, 1786, 1786, 1786]","[1010, 1010, 1010, 1010, 1010, 1010, 1010, 1010, 1010, 1010, 1010, 1010, 1010, 1010, 1010, 1010, 1010, 1010, 1010, 1010, 1010, 1010, 1000, 994, 986, 978, 954, 942, 927, 914, 888, 871, 859, 848, 819, 796, 776, 750, 704, 679, 653, 625, 576, 553, 532, 512, 479, 464, 453, 441, 411, 397, 384, 375, 357, 349, 339, 331, 316, 310, 305, 300, 292, 288, 284, 280, 273, 269, 264, 261, 251, 246, 241, 236, 225, 220, 215, 210, 199, 194, 187, 181, 168, 161, 155, 149, 134, 129, 123, 117, 110, 107, 107, 105, 104, 104, 104, 104, 104, 104, 104, 104]"
"Promise","Wie oft werden Sie die Hälfte zurückgeben?","Promise","1","undefined","11","0","4","60","1080","381","5","1","1096","0","legacy","[11, 21, 31, 41, 51, 61, 71, 81, 91, 101, 111, 121, 131, 141, 151, 161, 171, 181, 191, 201, 211, 221, 231, 241, 251, 261, 271, 281, 291, 301, 311, 321, 331, 341, 351, 361, 371, 381, 391, 401, 411, 421, 431, 441, 451, 461, 471, 481, 491, 501, 511, 521, 531, 541, 551, 561, 571, 581, 591, 601, 611, 621, 631, 641, 651, 661, 671, 681, 691, 701, 711, 721, 731, 741, 751, 761, 771, 781, 791, 801, 811, 821, 831, 841, 851, 861, 871, 881, 891, 901, 911, 921, 931, 941, 951, 961, 971, 981, 991, 1001, 1011, 1021, 1031, 1041, 1051, 1061, 1071, 1081, 1091]","1069","1920","[960, 960, 960, 960, 960, 960, 960, 960, 960, 960, 960, 960, 960, 960, 960, 960, 960, 960, 960, 960, 960, 960, 960, 960, 960, 960, 960, 960, 961, 963, 966, 975, 981, 986, 995, 1016, 1028, 1040, 1053, 1077, 1091, 1106, 1121, 1147, 1158, 1168, 1175, 1192, 1204, 1210, 1220, 1237, 1246, 1255, 1265, 1283, 1294, 1305, 1315, 1340, 1350, 1363, 1372, 1389, 1400, 1408, 1419, 1441, 1452, 1460, 1467, 1488, 1496, 1504, 1514, 1530, 1538, 1547, 1555, 1570, 1578, 1583, 1591, 1602, 1607, 1612, 1615, 1625, 1629, 1634, 1636, 1642, 1645, 1648, 1651, 1657, 1660, 1662, 1662, 1664, 1665, 1665, 1665, 1665, 1665, 1665, 1665, 1665, 1665]","[1010, 1010, 1010, 1010, 1010, 1010, 1010, 1010, 1010, 1010, 1010, 1010, 1010, 1010, 1010, 1010, 1010, 1010, 1010, 1010, 1010, 1010, 1010, 1010, 1010, 1010, 1010, 1010, 1006, 1004, 1000, 990, 984, 978, 970, 953, 943, 934, 921, 891, 875, 858, 840, 810, 795, 781, 771, 747, 730, 720, 708, 685, 671, 657, 645, 619, 603, 588, 574, 537, 525, 505, 494, 469, 453, 441, 426, 399, 382, 372, 360, 334, 322, 311, 300, 278, 267, 255, 246, 228, 219, 212, 203, 188, 180, 171, 166, 151, 147, 139, 136, 127, 124, 119, 115, 107, 102, 101, 99, 97, 96, 96, 96, 96, 96, 96, 96, 96, 96]"
"Trust","Teilnehmer A hat Ihnen 2 Punkte übermittelt.","Payback","1","undefined","12","0","4","60","1080","301","5","1","1077","0","legacy","[11, 21, 31, 41, 51, 61, 71, 81, 91, 101, 111, 121, 131, 141, 151, 161, 171, 181, 191, 201, 211, 221, 231, 241, 251, 261, 271, 281, 291, 301, 311, 321, 331, 341, 351, 361, 371, 381, 391, 401, 411, 421, 431, 441, 451, 461, 471, 481, 491, 501, 511, 521, 531, 541, 551, 561, 571, 581, 591, 601, 611, 621, 631, 641, 651, 661, 671, 681, 691, 701, 711, 721, 731, 741, 751, 761, 771, 781, 791, 801, 811, 821, 831, 841, 851, 861, 871, 881, 891, 901, 911, 921, 931, 941, 951, 961, 971, 981, 991, 1001, 1011, 1021, 1031, 1041, 1051, 1061, 1071]","1069","1920","[960, 960, 960, 960, 960, 960, 960, 960, 960, 960, 960, 960, 960, 960, 960, 960, 960, 960, 960, 960, 961, 962, 967, 972, 976, 982, 994, 1000, 1008, 1015, 1026, 1032, 1037, 1043, 1053, 1057, 1062, 1067, 1077, 1085, 1091, 1098, 1112, 1120, 1134, 1149, 1183, 1197, 1212, 1229, 1262, 1275, 1287, 1300, 1315, 1323, 1331, 1339, 1354, 1359, 1365, 1370, 1382, 1386, 1390, 1396, 1408, 1414, 1418, 1423, 1434, 1441, 1450, 1457, 1473, 1480, 1489, 1495, 1511, 1519, 1525, 1535, 1550, 1559, 1569, 1576, 1594, 1604, 1611, 1617, 1629, 1634, 1635, 1637, 1639, 1639, 1639, 1639, 1639, 1639, 1639, 1639, 1640, 1640, 1640, 1640, 1640]","[1010, 1010, 1010, 1010, 1010, 1010, 1010, 1010, 1010, 1010, 1010, 1010, 1010, 1010, 1010, 1010, 1010, 1010, 1010, 1010, 1011, 1010, 1001, 992, 987, 980, 963, 955, 946, 938, 923, 915, 909, 903, 889, 883, 877, 868, 852, 841, 833, 822, 799, 788, 770, 752, 707, 684, 664, 642, 601, 584, 566, 551, 528, 518, 505, 493, 475, 466, 458, 450, 434, 428, 423, 414, 397, 391, 386, 377, 362, 352, 340, 330, 308, 297, 287, 275, 255, 246, 236, 225, 206, 197, 187, 178, 160, 151, 143, 138, 128, 124, 122, 122, 120, 120, 120, 120, 120, 119, 119, 119, 119, 119, 119, 119, 119]"
"Trust","Teilnehmer A hat Ihnen 2 Punkte übermittelt.","Payback","1","undefined","13","0","4","60","1080","311","5","1","996","0","legacy","[11, 21, 31, 41, 51, 61, 71, 81, 91, 101, 111, 121, 131, 141, 151, 161, 171, 181, 191, 201, 211, 221, 231, 241, 251, 261, 271, 281, 291, 301, 311, 321, 331, 341, 351, 361, 371, 381, 391, 401, 411, 421, 431, 441, 451, 461, 471, 481, 491, 501, 511, 521, 531, 541, 551, 561, 571, 581, 591, 601, 611, 621, 631, 641, 651, 661, 671, 681, 691, 701, 711, 721, 731, 741, 751, 761, 771, 781, 791, 801, 811, 821, 831, 841, 851, 861, 871, 881, 891, 901, 911, 921, 931, 941, 951, 961, 971, 981, 991]","1069","1920","[960, 960, 960, 960, 960, 960, 960, 960, 960, 960, 960, 960, 960, 960, 960, 960, 960, 960, 960, 960, 960, 960, 961, 963, 967, 974, 979, 984, 991, 1004, 1012, 1020, 1031, 1052, 1064, 1077, 1088, 1120, 1131, 1147, 1159, 1190, 1202, 1214, 1230, 1263, 1281, 1299, 1314, 1342, 1355, 1370, 1382, 1406, 1420, 1432, 1448, 1475, 1488, 1499, 1515, 1533, 1541, 1549, 1554, 1563, 1566, 1568, 1569, 1570, 1572, 1574, 1575, 1580, 1584, 1587, 1589, 1595, 1596, 1599, 1600, 1606, 1611, 1615, 1619, 1627, 1631, 1633, 1633, 1634, 1636, 1636, 1638, 1639, 1640, 1640, 1640, 1640, 1640]","[1010, 1010, 1010, 1010, 1010, 1010, 1010, 1010, 1010, 1010, 1010, 1010, 1010, 1010, 1010, 1010, 1010, 1010, 1010, 1010, 1010, 1007, 1002, 1000, 995, 985, 979, 973, 967, 949, 939, 925, 911, 882, 867, 847, 833, 790, 773, 748, 729, 684, 663, 641, 614, 554, 521, 491, 464, 413, 389, 367, 342, 306, 282, 265, 242, 203, 186, 169, 146, 120, 109, 99, 90, 77, 74, 71, 69, 68, 67, 65, 64, 60, 58, 56, 54, 50, 49, 47, 46, 42, 38, 37, 35, 31, 29, 29, 29, 28, 27, 27, 26, 25, 25, 25, 25, 25, 25]"
"Trust","Teilnehmer A hat Ihnen 2 Punkte übermittelt.","Payback","1","undefined","14","0","4","60","1080","371","5","1","1005","0","legacy","[11, 21, 31, 41, 51, 61, 71, 81, 91, 101, 111, 121, 131, 141, 151, 161, 171, 181, 191, 201, 211, 221, 231, 241, 251, 261, 271, 281, 291, 301, 311, 321, 331, 341, 351, 361, 371, 381, 391, 401, 411, 421, 431, 441, 451, 461, 471, 481, 491, 501, 511, 521, 531, 541, 551, 561, 571, 581, 591, 601, 611, 621, 631, 641, 651, 661, 671, 681, 691, 701, 711, 721, 731, 741, 751, 761, 771, 781, 791, 801, 811, 821, 831, 841, 851, 861, 871, 881, 891, 901, 911, 921, 931, 941, 951, 961, 971, 981, 991, 1001]","1069","1920","[960, 960, 960, 960, 960, 960, 960, 960, 960, 960, 960, 960, 960, 960, 960, 960, 960, 960, 960, 960, 960, 960, 960, 960, 960, 960, 960, 960, 960, 960, 963, 967, 973, 983, 1009, 1025, 1044, 1066, 1117, 1146, 1176, 1203, 1262, 1291, 1319, 1343, 1369, 1384, 1395, 1403, 1421, 1430, 1438, 1448, 1462, 1473, 1480, 1490, 1504, 1514, 1520, 1527, 1540, 1546, 1551, 1557, 1568, 1573, 1578, 1582, 1587, 1591, 1593, 1596, 1601, 1605, 1606, 1612, 1616, 1621, 1625, 1629, 1641, 1646, 1652, 1656, 1664, 1668, 1670, 1673, 1674, 1676, 1680, 1681, 1683, 1683, 1684, 1684, 1684, 1684]","[1010, 1010, 1010, 1010, 1010, 1010, 1010, 1010, 1010, 1010, 1010, 1010, 1010, 1010, 1010, 1010, 1010, 1010, 1010, 1010, 1010, 1010, 1010, 1010, 1010, 1010, 1010, 1010, 1010, 1010, 1004, 1000, 994, 983, 957, 941, 920, 896, 845, 818, 788, 761, 702, 672, 641, 612, 578, 560, 543, 531, 506, 494, 483, 471, 446, 434, 422, 409, 385, 371, 360, 350, 323, 312, 301, 289, 270, 264, 257, 251, 241, 236, 232, 227, 219, 214, 211, 200, 194, 188, 180, 174, 160, 154, 148, 141, 132, 125, 122, 116, 112, 109, 103, 99, 96, 95, 95, 94, 94, 94]"
"Promise","Wie oft werden Sie die Hälfte zurückgeben?","Promise","1","undefined","14","0","5","60","1080","321","5","1","864","0","legacy","[11, 21, 31, 41, 51, 61, 71, 81, 91, 101, 111, 121, 131, 141, 151, 161, 171, 181, 191, 201, 211, 221, 231, 241, 251, 261, 271, 281, 291, 301, 311, 321, 331, 341, 351, 361, 371, 381, 391, 401, 411, 421, 431, 441, 451, 461, 471, 481, 491, 501, 511, 521, 531, 541, 551, 561, 571, 581, 591, 601, 611, 621, 631, 641, 651, 661, 671, 681, 691, 701, 711, 721, 731, 741, 751, 761, 771, 781, 791, 801, 811, 821, 831, 841, 851, 861]","1069","1920","[960, 960, 960, 960, 960, 960, 960, 960, 960, 960, 960, 960, 960, 960, 960, 960, 960, 960, 960, 960, 960, 960, 963, 967, 968, 972, 977, 990, 997, 1006, 1017, 1041, 1056, 1073, 1081, 1109, 1127, 1137, 1152, 1180, 1199, 1218, 1237, 1280, 1301, 1322, 1343, 1388, 1411, 1432, 1456, 1505, 1532, 1554, 1573, 1613, 1629, 1646, 1664, 1687, 1700, 1706, 1712, 1723, 1728, 1732, 1735, 1740, 1741, 1744, 1744, 1744, 1744, 1745, 1745, 1745, 1745, 1745, 1745, 1745, 1745, 1745, 1745, 1745, 1745, 1745]","[1010, 1010, 1010, 1010, 1010, 1010, 1010, 1010, 1010, 1010, 1010, 1010, 1010, 1010, 1010, 1010, 1010, 1010, 1010, 1010, 1010, 1010, 1008, 1003, 1001, 997, 991, 978, 972, 963, 953, 933, 919, 906, 896, 871, 856, 846, 831, 802, 784, 765, 744, 701, 682, 661, 641, 591, 563, 534, 503, 433, 397, 364, 338, 284, 259, 237, 211, 175, 158, 147, 137, 116, 109, 100, 95, 88, 85, 83, 81, 79, 79, 78, 78, 77, 76, 76, 76, 76, 76, 76, 76, 76, 76, 76]"
"NoTrust","Teilnehmer A hat Ihnen keine 2 Punkte übermittelt.","Payback","1","undefined","15","0","5","60","1080","321","0","1","864","0","legacy","[11, 21, 31, 41, 51, 61, 71, 81, 91, 101, 111, 121, 131, 141, 151, 161, 171, 181, 191, 201, 211, 221, 231, 241, 251, 261, 271, 281, 291, 301, 311, 321, 331, 341, 351, 361, 371, 381, 391, 401, 411, 421, 431, 441, 451, 461, 471, 481, 491, 501, 511, 521, 531, 541, 551, 561, 571, 581, 591, 601, 611, 621, 631, 641, 651, 661, 671, 681, 691, 701, 711, 721, 731, 741, 751, 761, 771, 781, 791, 801, 811, 821, 831, 841, 851, 861]","1069","1920","[960, 960, 960, 960, 960, 960, 960, 960, 960, 960, 960, 960, 960, 960, 960, 960, 960, 960, 960, 960, 960, 960, 963, 967, 968, 972, 977, 990, 997, 1006, 1017, 1041, 1056, 1073, 1081, 1109, 1127, 1137, 1152, 1180, 1199, 1218, 1237, 1280, 1301, 1322, 1343, 1388, 1411, 1432, 1456, 1505, 1532, 1554, 1573, 1613, 1629, 1646, 1664, 1687, 1700, 1706, 1712, 1723, 1728, 1732, 1735, 1740, 1741, 1744, 1744, 1744, 1744, 1745, 1745, 1745, 1745, 1745, 1745, 1745, 1745, 1745, 1745, 1745, 1745, 1745]","[1010, 1010, 1010, 1010, 1010, 1010, 1010, 1010, 1010, 1010, 1010, 1010, 1010, 1010, 1010, 1010, 1010, 1010, 1010, 1010, 1010, 1010, 1008, 1003, 1001, 997, 991, 978, 972, 963, 953, 933, 919, 906, 896, 871, 856, 846, 831, 802, 784, 765, 744, 701, 682, 661, 641, 591, 563, 534, 503, 433, 397, 364, 338, 284, 259, 237, 211, 175, 158, 147, 137, 116, 109, 100, 95, 88, 85, 83, 81, 79, 79, 78, 78, 77, 76, 76, 76, 76, 76, 76, 76, 76, 76, 76]"
"Trust","Teilnehmer A hat Ihnen 2 Punkte übermittelt.","Payback","1","undefined","16","0","5","60","1080","241","5","1","844","0","legacy","[11, 21, 31, 41, 51, 61, 71, 81, 91, 101, 111, 121, 131, 141, 151, 161, 171, 181, 191, 201, 211, 221, 231, 241, 251, 261, 271, 281, 291, 301, 311, 321, 331, 341, 351, 361, 371, 381, 391, 401, 411, 421, 431, 441, 451, 461, 471, 481, 491, 501, 511, 521, 531, 541, 551, 561, 571, 581, 591, 601, 611, 621, 631, 641, 651, 661, 671, 681, 691, 701, 711, 721, 731, 741, 751, 761, 771, 781, 791, 801, 811, 821, 831, 841]","1069","1920","[960, 960, 960, 960, 960, 960, 960, 960, 960, 960, 960, 960, 960, 960, 960, 960, 960, 960, 960, 965, 974, 999, 1017, 1037, 1062, 1108, 1133, 1161, 1186, 1238, 1263, 1284, 1301, 1340, 1353, 1362, 1370, 1384, 1390, 1395, 1401, 1413, 1419, 1425, 1432, 1446, 1456, 1464, 1476, 1504, 1520, 1534, 1547, 1578, 1589, 1601, 1611, 1628, 1635, 1641, 1649, 1661, 1666, 1671, 1676, 1685, 1691, 1696, 1701, 1712, 1720, 1725, 1731, 1741, 1744, 1747, 1750, 1751, 1751, 1752, 1752, 1752, 1752, 1752]","[1010, 1010, 1010, 1010, 1010, 1010, 1010, 1010, 1010, 1010, 1010, 1010, 1010, 1010, 1010, 1010, 1010, 1010, 1010, 1005, 996, 967, 947, 921, 894, 839, 813, 781, 752, 699, 672, 651, 633, 597, 583, 574, 564, 546, 538, 530, 523, 506, 496, 487, 476, 457, 443, 431, 418, 383, 364, 349, 332, 298, 285, 273, 262, 242, 233, 225, 218, 204, 198, 191, 185, 175, 169, 164, 159, 144, 137, 131, 125, 113, 108, 105, 102, 100, 100, 99, 99, 99, 99, 99]"
"Trust","Teilnehmer A hat Ihnen 2 Punkte übermittelt.","Payback","1","undefined","17","0","5","60","1080","341","5","1","1012","0","legacy","[11, 21, 31, 41, 51, 61, 71, 81, 91, 101, 111, 121, 131, 141, 151, 161, 171, 181, 191, 201, 211, 221, 231, 241, 251, 261, 271, 281, 291, 301, 311, 321, 331, 341, 351, 361, 371, 381, 391, 401, 411, 421, 431, 441, 451, 461, 471, 481, 491, 501, 511, 521, 531, 541, 551, 561, 571, 581, 591, 601, 611, 621, 631, 641, 651, 661, 671, 681, 691, 701, 711, 721, 731, 741, 751, 761, 771, 781, 791, 801, 811, 821, 831, 841, 851, 861, 871, 881, 891, 901, 911, 921, 931, 941, 951, 961, 971, 981, 991, 1001, 1011]","1069","1920","[960, 960, 960, 960, 960, 960, 960, 960, 960, 960, 960, 960, 960, 960, 960, 960, 960, 960, 960, 960, 960, 960, 960, 960, 960, 962, 964, 971, 976, 992, 1000, 1009, 1018, 1036, 1047, 1061, 1077, 1111, 1137, 1155, 1177, 1224, 1252, 1280, 1302, 1350, 1372, 1393, 1419, 1467, 1486, 1505, 1518, 1544, 1558, 1568, 1577, 1595, 1601, 1608, 1616, 1627, 1630, 1635, 1641, 1652, 1659, 1661, 1666, 1675, 1680, 1684, 1688, 1694, 1698, 1700, 1703, 1708, 1713, 1717, 1718, 1727, 1730, 1734, 1738, 1745, 1750, 1753, 1759, 1763, 1764, 1765, 1767, 1767, 1767, 1767, 1767, 1767, 1767, 1767, 1767]","[1010, 1010, 1010, 1010, 1010, 1010, 1010, 1010, 1010, 1010, 1010, 1010, 1010, 1010, 1010, 1010, 1010, 1010, 1010, 1010, 1010, 1010, 1010, 1010, 1010, 1006, 1003, 996, 989, 971, 962, 950, 940, 917, 905, 889, 874, 843, 818, 798, 771, 714, 682, 653, 629, 574, 550, 529, 500, 449, 431, 412, 399, 373, 358, 347, 338, 320, 314, 305, 295, 282, 276, 269, 261, 247, 241, 237, 232, 222, 217, 212, 209, 201, 196, 192, 188, 180, 174, 169, 165, 152, 146, 140, 132, 120, 114, 106, 100, 90, 86, 83, 81, 79, 79, 79, 79, 79, 79, 78, 78]"
"Promise","Wie oft werden Sie die Hälfte zurückgeben?","Promise","1","undefined","17","0","6","60","1080","311","5","1","1008","0","legacy","[11, 21, 31, 41, 51, 61, 71, 81, 91, 101, 111, 121, 131, 141, 151, 161, 171, 181, 191, 201, 211, 221, 231, 241, 251, 261, 271, 281, 291, 301, 311, 321, 331, 341, 351, 361, 371, 381, 391, 401, 411, 421, 431, 441, 451, 461, 471, 481, 491, 501, 511, 521, 531, 541, 551, 561, 571, 581, 591, 601, 611, 621, 631, 641, 651, 661, 671, 681, 691, 701, 711, 721, 731, 741, 751, 761, 771, 781, 791, 801, 811, 821, 831, 841, 851, 861, 871, 881, 891, 901, 911, 921, 931, 941, 951, 961, 971, 981, 991, 1001]","1069","1920","[960, 960, 960, 960, 960, 960, 960, 960, 960, 960, 960, 960, 960, 960, 960, 960, 961, 962, 962, 964, 964, 965, 966, 968, 970, 973, 978, 990, 999, 1009, 1017, 1043, 1060, 1080, 1095, 1130, 1147, 1161, 1174, 1193, 1201, 1209, 1216, 1229, 1236, 1244, 1250, 1267, 1277, 1291, 1307, 1350, 1376, 1401, 1428, 1476, 1503, 1524, 1544, 1580, 1599, 1617, 1634, 1656, 1667, 1674, 1680, 1690, 1695, 1699, 1704, 1709, 1713, 1716, 1719, 1726, 1728, 1730, 1733, 1735, 1737, 1739, 1741, 1741, 1742, 1743, 1743, 1743, 1743, 1743, 1743, 1743, 1743, 1743, 1743, 1743, 1743, 1743, 1743, 1743]","[1010, 1010, 1010, 1010, 1010, 1010, 1010, 1010, 1010, 1010, 1010, 1010, 1010, 1010, 1010, 1010, 1009, 1008, 1008, 1006, 1005, 1004, 1003, 1000, 997, 993, 986, 969, 959, 947, 937, 903, 885, 862, 844, 803, 782, 767, 750, 726, 714, 705, 695, 678, 671, 662, 655, 639, 628, 616, 601, 559, 534, 507, 480, 425, 396, 373, 349, 303, 282, 259, 241, 212, 197, 187, 178, 163, 156, 150, 143, 133, 125, 119, 113, 102, 99, 94, 89, 84, 82, 80, 78, 76, 75, 74, 74, 73, 72, 72, 72, 72, 72, 72, 72, 72, 72, 72, 72, 72]"
"Trust","Teilnehmer A hat Ihnen 2 Punkte übermittelt.","Payback","1","undefined","18","0","6","60","1080","261","5","1","1140","0","legacy","[11, 21, 31, 41, 51, 61, 71, 81, 91, 101, 111, 121, 131, 141, 151, 161, 171, 181, 191, 201, 211, 221, 231, 241, 251, 261, 271, 281, 291, 301, 311, 321, 331, 341, 351, 361, 371, 381, 391, 401, 411, 421, 431, 441, 451, 461, 471, 481, 491, 501, 511, 521, 531, 541, 551, 561, 571, 581, 591, 601, 611, 621, 631, 641, 651, 661, 671, 681, 691, 701, 711, 721, 731, 741, 751, 761, 771, 781, 791, 801, 811, 821, 831, 841, 851, 861, 871, 881, 891, 901, 911, 921, 931, 941, 951, 961, 971, 981, 991, 1001, 1011, 1021, 1031, 1041, 1051, 1061, 1071, 1081, 1091, 1101, 1111, 1121, 1131]","1069","1920","[960, 960, 960, 960, 960, 960, 960, 960, 960, 960, 960, 960, 960, 960, 960, 960, 960, 960, 962, 967, 975, 993, 1004, 1018, 1033, 1058, 1078, 1104, 1130, 1183, 1212, 1239, 1265, 1322, 1354, 1374, 1396, 1430, 1444, 1459, 1473, 1496, 1509, 1525, 1536, 1556, 1565, 1574, 1583, 1601, 1613, 1621, 1634, 1653, 1659, 1670, 1678, 1697, 1704, 1712, 1722, 1734, 1739, 1743, 1750, 1758, 1761, 1765, 1769, 1777, 1781, 1784, 1789, 1793, 1795, 1797, 1799, 1800, 1801, 1801, 1801, 1803, 1803, 1803, 1803, 1803, 1804, 1804, 1804, 1804, 1804, 1804, 1804, 1804, 1804, 1804, 1804, 1804, 1804, 1804, 1804, 1804, 1804, 1804, 1804, 1804, 1804, 1804, 1804, 1804, 1804, 1804, 1804]","[1010, 1010, 1010, 1010, 1010, 1010, 1010, 1010, 1010, 1010, 1010, 1010, 1010, 1010, 1010, 1010, 1010, 1010, 1010, 1008, 1001, 987, 979, 969, 957, 938, 923, 902, 879, 839, 814, 791, 767, 708, 677, 656, 633, 594, 579, 561, 545, 518, 505, 489, 475, 452, 442, 430, 421, 398, 383, 372, 356, 331, 321, 309, 299, 276, 266, 255, 241, 222, 215, 209, 200, 189, 184, 178, 173, 158, 153, 147, 139, 130, 128, 124, 121, 117, 115, 114, 112, 109, 107, 106, 104, 103, 102, 102, 102, 102, 102, 102, 102, 102, 102, 102, 102, 102, 102, 102, 102, 102, 102, 102, 102, 102, 102, 102, 102, 102, 102, 102, 102]"
"Trust","Teilnehmer A hat Ihnen 2 Punkte übermittelt.","Payback","1","undefined","19","0","6","60","1080","321","5","1","1060","0","legacy","[11, 21, 31, 41, 51, 61, 71, 81, 91, 101, 111, 121, 131, 141, 151, 161, 171, 181, 191, 201, 211, 221, 231, 241, 251, 261, 271, 281, 291, 301, 311, 321, 331, 341, 351, 361, 371, 381, 391, 401, 411, 421, 431, 441, 451, 461, 471, 481, 491, 501, 511, 521, 531, 541, 551, 561, 571, 581, 591, 601, 611, 621, 631, 641, 651, 661, 671, 681, 691, 701, 711, 721, 731, 741, 751, 761, 771, 781, 791, 801, 811, 821, 831, 841, 851, 861, 871, 881, 891, 901, 911, 921, 931, 941, 951, 961, 971, 981, 991, 1001, 1011, 1021, 1031, 1041, 1051]","1069","1920","[960, 960, 960, 960, 960, 960, 960, 960, 960, 960, 960, 960, 960, 960, 960, 960, 960, 960, 960, 962, 963, 968, 970, 974, 979, 991, 996, 1007, 1017, 1049, 1063, 1085, 1109, 1158, 1186, 1227, 1253, 1325, 1351, 1391, 1415, 1490, 1528, 1559, 1591, 1653, 1676, 1695, 1714, 1746, 1757, 1773, 1787, 1805, 1815, 1821, 1826, 1835, 1838, 1842, 1844, 1848, 1852, 1854, 1857, 1860, 1863, 1863, 1864, 1865, 1865, 1865, 1867, 1867, 1867, 1867, 1867, 1867, 1867, 1867, 1867, 1867, 1867, 1867, 1866, 1866, 1865, 1864, 1864, 1862, 1861, 1859, 1857, 1844, 1833, 1822, 1815, 1805, 1803, 1802, 1801, 1801, 1801, 1801, 1801]","[1010, 1010, 1010, 1010, 1010, 1010, 1010, 1010, 1010, 1010, 1010, 1010, 1010, 1010, 1010, 1010, 1010, 1010, 1010, 1009, 1007, 1003, 1001, 998, 994, 986, 982, 976, 971, 953, 945, 932, 919, 890, 873, 849, 829, 779, 754, 723, 699, 627, 589, 555, 515, 444, 415, 387, 362, 317, 300, 280, 264, 238, 225, 215, 204, 186, 177, 169, 161, 147, 140, 134, 126, 115, 107, 103, 101, 94, 92, 90, 86, 84, 84, 83, 82, 81, 80, 79, 79, 77, 77, 76, 76, 75, 74, 73, 73, 73, 73, 71, 71, 71, 71, 71, 71, 71, 71, 71, 71, 71, 71, 71, 71]"
"Trust","Teilnehmer A hat Ihnen 2 Punkte übermittelt.","Payback","1","undefined","20","0","6","60","1080","271","5","1","1006","0","legacy","[11, 21, 31, 41, 51, 61, 71, 81, 91, 101, 111, 121, 131, 141, 151, 161, 171, 181, 191, 201, 211, 221, 231, 241, 251, 261, 271, 281, 291, 301, 311, 321, 331, 341, 351, 361, 371, 381, 391, 401, 411, 421, 431, 441, 451, 461, 471, 481, 491, 501, 511, 521, 531, 541, 551, 561, 571, 581, 591, 601, 611, 621, 631, 641, 651, 661, 671, 681, 691, 701, 711, 721, 731, 741, 751, 761, 771, 781, 791, 801, 811, 821, 831, 841, 851, 861, 871, 881, 891, 901, 911, 921, 931, 941, 951, 961, 971, 981, 991, 1001]","1069","1920","[960, 960, 960, 960, 960, 960, 960, 960, 960, 960, 960, 960, 960, 960, 960, 960, 960, 960, 970, 980, 993, 1007, 1032, 1045, 1055, 1067, 1094, 1104, 1114, 1128, 1161, 1176, 1201, 1223, 1268, 1294, 1314, 1334, 1377, 1390, 1406, 1424, 1457, 1472, 1479, 1486, 1502, 1509, 1519, 1530, 1558, 1570, 1588, 1603, 1626, 1640, 1649, 1656, 1669, 1675, 1678, 1683, 1691, 1694, 1697, 1698, 1702, 1705, 1706, 1707, 1714, 1717, 1718, 1720, 1723, 1725, 1728, 1729, 1736, 1741, 1746, 1752, 1764, 1771, 1776, 1783, 1793, 1798, 1804, 1806, 1812, 1813, 1814, 1815, 1815, 1815, 1815, 1815, 1815, 1815]","[1010, 1010, 1010, 1010, 1010, 1010, 1010, 1010, 1010, 1010, 1010, 1010, 1010, 1010, 1010, 1010, 1010, 1010, 1004, 998, 992, 986, 976, 970, 962, 957, 939, 931, 922, 911, 882, 872, 855, 839, 807, 788, 774, 759, 723, 710, 696, 678, 644, 626, 614, 600, 572, 559, 541, 519, 471, 446, 419, 392, 356, 336, 320, 311, 290, 282, 274, 267, 255, 249, 244, 239, 230, 225, 222, 219, 209, 207, 203, 200, 193, 189, 186, 183, 172, 166, 158, 151, 135, 128, 120, 113, 99, 93, 86, 82, 73, 73, 71, 70, 70, 70, 70, 70, 70, 70]"
"Promise","Wie oft werden Sie die Hälfte zurückgeben?","Promise","1","undefined","20","0","7","60","1080","411","5","1","1096","0","legacy","[11, 21, 31, 41, 51, 61, 71, 81, 91, 101, 111, 121, 131, 141, 151, 161, 171, 181, 191, 201, 211, 221, 231, 241, 251, 261, 271, 281, 291, 301, 311, 321, 331, 341, 351, 361, 371, 381, 391, 401, 411, 421, 431, 441, 451, 461, 471, 481, 491, 501, 511, 521, 531, 541, 551, 561, 571, 581, 591, 601, 611, 621, 631, 641, 651, 661, 671, 681, 691, 701, 711, 721, 731, 741, 751, 761, 771, 781, 791, 801, 811, 821, 831, 841, 851, 861, 871, 881, 891, 901, 911, 921, 931, 941, 951, 961, 971, 981, 991, 1001, 1011, 1021, 1031, 1041, 1051, 1061, 1071, 1081, 1091]","1069","1920","[960, 960, 960, 960, 960, 960, 960, 960, 960, 960, 960, 960, 960, 960, 960, 960, 960, 960, 960, 960, 960, 960, 960, 960, 960, 960, 960, 960, 960, 963, 964, 968, 970, 972, 974, 979, 984, 990, 999, 1019, 1037, 1056, 1081, 1133, 1165, 1194, 1228, 1282, 1306, 1322, 1338, 1363, 1372, 1379, 1385, 1395, 1401, 1405, 1406, 1418, 1422, 1428, 1435, 1453, 1457, 1466, 1475, 1492, 1502, 1512, 1520, 1532, 1537, 1543, 1548, 1553, 1556, 1559, 1563, 1572, 1578, 1584, 1591, 1607, 1613, 1621, 1628, 1643, 1652, 1662, 1669, 1683, 1690, 1693, 1698, 1707, 1710, 1715, 1717, 1722, 1723, 1724, 1725, 1727, 1727, 1727, 1727, 1727, 1727]","[1010, 1010, 1010, 1010, 1010, 1010, 1010, 1010, 1010, 1010, 1010, 1010, 1010, 1010, 1010, 1010, 1010, 1010, 1010, 1010, 1010, 1010, 1010, 1010, 1010, 1010, 1010, 1010, 1008, 1006, 1004, 1000, 997, 995, 994, 988, 983, 978, 970, 952, 935, 914, 887, 824, 785, 748, 705, 630, 599, 576, 554, 517, 503, 490, 477, 453, 442, 432, 422, 401, 390, 378, 363, 331, 319, 306, 292, 268, 254, 242, 231, 214, 206, 199, 193, 186, 184, 179, 175, 167, 161, 156, 151, 139, 133, 129, 124, 114, 109, 103, 100, 91, 87, 86, 81, 75, 73, 70, 68, 66, 65, 64, 63, 63, 63, 63, 63, 63, 63]"
"Trust","Teilnehmer A hat Ihnen 2 Punkte übermittelt.","Payback","1","undefined","21","0","7","60","1080","281","5","1","805","0","legacy","[11, 21, 31, 41, 51, 61, 71, 81, 91, 101, 111, 121, 131, 141, 151, 161, 171, 181, 191, 201, 211, 221, 231, 241, 251, 261, 271, 281, 291, 301, 311, 321, 331, 341, 351, 361, 371, 381, 391, 401, 411, 421, 431, 441, 451, 461, 471, 481, 491, 501, 511, 521, 531, 541, 551, 561, 571, 581, 591, 601, 611, 621, 631, 641, 651, 661, 671, 681, 691, 701, 711, 721, 731, 741, 751, 761, 771, 781, 791, 801]","1069","1920","[960, 960, 960, 960, 960, 960, 960, 960, 960, 960, 960, 960, 960, 960, 960, 960, 960, 960, 960, 960, 960, 960, 967, 973, 987, 997, 1031, 1054, 1075, 1106, 1167, 1204, 1244, 1281, 1356, 1394, 1431, 1469, 1527, 1556, 1581, 1601, 1641, 1654, 1663, 1671, 1685, 1690, 1695, 1701, 1712, 1716, 1721, 1725, 1736, 1740, 1744, 1746, 1753, 1757, 1761, 1764, 1769, 1771, 1774, 1776, 1776, 1778, 1779, 1779, 1779, 1779, 1780, 1780, 1782, 1782, 1782, 1782, 1782, 1782]","[1010, 1010, 1010, 1010, 1010, 1010, 1010, 1010, 1010, 1010, 1010, 1010, 1010, 1010, 1010, 1010, 1010, 1010, 1010, 1010, 1010, 1010, 1007, 1002, 992, 985, 957, 939, 919, 893, 838, 804, 771, 739, 670, 637, 604, 566, 502, 472, 448, 425, 378, 361, 344, 333, 308, 298, 288, 281, 262, 255, 246, 238, 220, 211, 206, 197, 184, 174, 169, 162, 149, 143, 137, 133, 126, 123, 121, 120, 116, 115, 113, 110, 106, 105, 103, 102, 102, 102]"
"Trust","Teilnehmer A hat Ihnen 2 Punkte übermittelt.","Payback","1","undefined","22","0","7","60","1080","261","5","1","916","0","legacy","[11, 21, 31, 41, 51, 61, 71, 81, 91, 101, 111, 121, 131, 141, 151, 161, 171, 181, 191, 201, 211, 221, 231, 241, 251, 261, 271, 281, 291, 301, 311, 321, 331, 341, 351, 361, 371, 381, 391, 401, 411, 421, 431, 441, 451, 461, 471, 481, 491, 501, 511, 521, 531, 541, 551, 561, 571, 581, 591, 601, 611, 621, 631, 641, 651, 661, 671, 681, 691, 701, 711, 721, 731, 741, 751, 761, 771, 781, 791, 801, 811, 821, 831, 841, 851, 861, 871, 881, 891, 901, 911]","1069","1920","[960, 960, 960, 960, 960, 960, 960, 960, 960, 960, 960, 960, 960, 960, 960, 960, 960, 960, 960, 960, 962, 983, 996, 1019, 1047, 1120, 1164, 1202, 1241, 1320, 1359, 1401, 1440, 1510, 1546, 1580, 1603, 1658, 1681, 1707, 1728, 1772, 1792, 1808, 1822, 1849, 1862, 1874, 1886, 1904, 1911, 1918, 1919, 1919, 1919, 1919, 1919, 1919, 1919, 1919, 1919, 1919, 1919, 1919, 1919, 1919, 1919, 1919, 1919, 1919, 1919, 1918, 1915, 1913, 1911, 1911, 1910, 1908, 1908, 1907, 1907, 1907, 1907, 1907, 1907, 1907, 1907, 1907, 1907, 1907, 1907]","[1010, 1010, 1010, 1010, 1010, 1010, 1010, 1010, 1010, 1010, 1010, 1010, 1010, 1010, 1010, 1010, 1010, 1010, 1010, 1009, 1005, 990, 981, 965, 948, 894, 866, 841, 814, 755, 728, 698, 670, 619, 592, 570, 550, 504, 486, 463, 446, 407, 391, 377, 359, 329, 316, 301, 286, 265, 255, 246, 238, 221, 214, 211, 205, 193, 187, 180, 176, 166, 163, 158, 154, 149, 146, 144, 142, 136, 134, 131, 127, 122, 120, 120, 118, 115, 115, 115, 115, 115, 115, 115, 115, 115, 115, 115, 115, 115, 115]"
"Trust","Teilnehmer A hat Ihnen 2 Punkte übermittelt.","Payback","1","undefined","23","0","7","60","1080","311","5","1","1086","0","legacy","[11, 21, 31, 41, 51, 61, 71, 81, 91, 101, 111, 121, 131, 141, 151, 161, 171, 181, 191, 201, 211, 221, 231, 241, 251, 261, 271, 281, 291, 301, 311, 321, 331, 341, 351, 361, 371, 381, 391, 401, 411, 421, 431, 441, 451, 461, 471, 481, 491, 501, 511, 521, 531, 541, 551, 561, 571, 581, 591, 601, 611, 621, 631, 641, 651, 661, 671, 681, 691, 701, 711, 721, 731, 741, 751, 761, 771, 781, 791, 801, 811, 821, 831, 841, 851, 861, 871, 881, 891, 901, 911, 921, 931, 941, 951, 961, 971, 981, 991, 1001, 1011, 1021, 1031, 1041, 1051, 1061, 1071, 1081]","1069","1920","[960, 960, 960, 960, 960, 960, 960, 960, 960, 960, 960, 960, 960, 960, 960, 960, 960, 960, 960, 960, 960, 960, 960, 964, 969, 977, 992, 1000, 1009, 1017, 1034, 1045, 1054, 1060, 1076, 1082, 1090, 1096, 1109, 1115, 1123, 1128, 1144, 1152, 1160, 1173, 1200, 1215, 1229, 1248, 1294, 1316, 1337, 1361, 1401, 1422, 1438, 1454, 1492, 1505, 1523, 1538, 1565, 1580, 1594, 1605, 1621, 1628, 1635, 1641, 1652, 1655, 1660, 1663, 1670, 1673, 1675, 1677, 1682, 1683, 1685, 1685, 1690, 1691, 1691, 1693, 1695, 1697, 1698, 1700, 1702, 1703, 1703, 1703, 1705, 1705, 1705, 1705, 1705, 1705, 1705, 1705, 1705, 1705, 1705, 1705, 1705, 1705]","[1010, 1010, 1010, 1010, 1010, 1010, 1010, 1010, 1010, 1010, 1010, 1010, 1010, 1010, 1010, 1010, 1010, 1010, 1010, 1010, 1010, 1010, 1009, 1004, 998, 990, 974, 965, 956, 950, 935, 927, 921, 917, 906, 901, 897, 892, 881, 876, 869, 861, 843, 832, 818, 801, 764, 744, 722, 699, 642, 618, 590, 561, 514, 486, 463, 443, 397, 379, 354, 336, 297, 279, 259, 243, 216, 203, 191, 181, 160, 150, 140, 131, 116, 108, 103, 99, 89, 86, 82, 80, 72, 69, 67, 64, 58, 55, 52, 48, 44, 41, 40, 39, 36, 36, 36, 36, 35, 35, 35, 35, 35, 35, 35, 35, 35, 35]"
CHF,TotCHF,final_payoff,sum
"10","30","[5, 5, 5, 5]","20"
