Condition,PromiseStage,Stage,accuracy,avg_rt,count_decision_sequence,count_loop1,count_trial_sequence,font_size,height,init_time,payoff,response,rt,subject_nr,synth_backend,tTrajectory,time_experiment,width,xTrajectory,yTrajectory
"Promise","Wie oft werden Sie die Hälfte zurückgeben?","Promise","0","undefined","NA","0","0","60","1080","241","NA","2","2471","0","legacy","[11, 21, 31, 41, 51, 61, 71, 81, 91, 101, 111, 121, 131, 141, 151, 161, 171, 181, 191, 201, 211, 221, 231, 241, 251, 261, 271, 281, 291, 301, 311, 321, 331, 341, 351, 361, 371, 381, 391, 401, 411, 421, 431, 441, 451, 461, 471, 481, 491, 501, 511, 521, 531, 541, 551, 561, 571, 581, 591, 601, 611, 621, 631, 641, 651, 661, 671, 681, 691, 701, 711, 721, 731, 741, 751, 761, 771, 781, 791, 801, 811, 821, 831, 841, 851, 861, 871, 881, 891, 901, 911, 921, 931, 941, 951, 961, 971, 981, 991, 1001, 1011, 1021, 1031, 1041, 1051, 1061, 1071, 1081, 1091, 1101, 1111, 1121, 1131, 1141, 1151, 1161, 1171, 1181, 1191, 1201, 1211, 1221, 1231, 1241, 1251, 1261, 1271, 1281, 1291, 1301, 1311, 1321, 1331, 1341, 1351, 1361, 1371, 1381, 1391, 1401, 1411, 1421, 1431, 1441, 1451, 1461, 1471, 1481, 1491, 1501, 1511, 1521, 1531, 1541, 1551, 1561, 1571, 1581, 1591, 1601, 1611, 1621, 1631, 1641, 1651, 1661, 1671, 1681, 1691, 1701, 1711, 1721, 1731, 1741, 1751, 1761, 1771, 1781, 1791, 1801, 1811, 1821, 1831, 1841, 1851, 1861, 1871, 1881, 1891, 1901, 1911, 1921, 1931, 1941, 1951, 1961, 1971, 1981, 1991, 2001, 2011, 2021, 2031, 2041, 2051, 2061, 2071, 2081, 2091, 2101, 2111, 2121, 2131, 2141, 2151, 2161, 2171, 2181, 2191, 2201, 2211, 2221, 2231, 2241, 2251, 2261, 2271, 2281, 2291, 2301, 2311, 2321, 2331, 2341, 2351, 2361, 2371, 2381, 2391, 2401, 2411, 2421, 2431, 2441, 2451, 2461, 2471]","1092","1920","[960, 960, 960, 960, 960, 960, 960, 960, 960, 960, 960, 960, 960, 960, 960, 960, 960, 960, 960, 960, 960, 961, 962, 973, 980, 986, 990, 1000, 1005, 1005, 1005, 1005, 1005, 1005, 1007, 1009, 1012, 1015, 1015, 1015, 1015, 1010, 1006, 997, 992, 989, 986, 981, 978, 975, 973, 966, 964, 962, 960, 958, 958, 958, 958, 958, 958, 958, 958, 958, 957, 957, 955, 953, 951, 950, 948, 945, 943, 941, 938, 934, 933, 931, 930, 928, 927, 925, 924, 918, 916, 915, 913, 911, 910, 910, 908, 906, 905, 903, 901, 897, 894, 890, 885, 876, 872, 867, 863, 854, 849, 845, 838, 827, 818, 811, 796, 789, 783, 775, 763, 755, 750, 744, 732, 728, 723, 719, 709, 704, 699, 694, 684, 678, 676, 669, 659, 654, 650, 644, 630, 626, 620, 615, 608, 605, 603, 600, 594, 591, 588, 584, 577, 573, 567, 563, 552, 546, 543, 539, 533, 529, 524, 521, 515, 510, 505, 499, 485, 474, 467, 457, 442, 436, 429, 427, 423, 423, 422, 421, 417, 414, 410, 407, 398, 392, 386, 378, 364, 357, 351, 343, 328, 321, 313, 307, 295, 289, 284, 278, 263, 256, 249, 243, 236, 231, 228, 227, 224, 220, 220, 218, 216, 213, 211, 210, 208, 203, 202, 199, 198, 195, 195, 194, 193, 192, 192, 192, 192, 191, 191, 191, 191, 191, 191, 191, 191, 191, 191, 191, 191, 191, 191, 191, 191, 191, 191, 191, 191, 191, 191, 191, 191]","[1010, 1010, 1010, 1010, 1010, 1010, 1010, 1010, 1010, 1010, 1010, 1010, 1010, 1010, 1010, 1010, 1008, 1007, 1004, 994, 987, 977, 966, 937, 920, 895, 858, 791, 753, 722, 689, 622, 592, 564, 532, 471, 436, 410, 385, 332, 309, 284, 265, 222, 208, 191, 180, 158, 147, 139, 130, 115, 110, 107, 103, 101, 101, 101, 101, 101, 101, 101, 101, 101, 101, 101, 102, 103, 105, 106, 107, 109, 110, 112, 113, 115, 116, 116, 117, 118, 119, 120, 120, 123, 124, 124, 124, 124, 124, 124, 124, 124, 124, 124, 124, 123, 122, 120, 119, 117, 117, 115, 115, 115, 115, 115, 115, 115, 115, 116, 118, 118, 118, 120, 122, 123, 123, 125, 126, 126, 127, 129, 130, 131, 131, 132, 134, 134, 134, 134, 135, 135, 135, 135, 136, 136, 137, 139, 140, 140, 140, 140, 141, 141, 141, 141, 141, 141, 141, 141, 141, 141, 141, 141, 141, 141, 140, 140, 139, 138, 138, 137, 135, 133, 133, 130, 128, 127, 126, 126, 125, 125, 125, 125, 124, 124, 124, 124, 124, 124, 124, 124, 122, 120, 119, 119, 119, 118, 118, 118, 118, 118, 118, 118, 117, 117, 117, 117, 117, 117, 117, 117, 117, 116, 116, 116, 115, 114, 114, 113, 112, 110, 110, 108, 108, 107, 106, 106, 105, 104, 104, 104, 104, 103, 103, 103, 103, 103, 103, 103, 103, 103, 103, 103, 103, 103, 103, 103, 103, 103, 103, 103, 103, 103, 103, 103, 103]"
Cond,DecisionB,Stage,accuracy,avg_rt,count_decision_sequence,count_loop1,count_trial_sequence,font_size,height,init_time,payoff,response,rt,subject_nr,synth_backend,tTrajectory,time_experiment,width,xTrajectory,yTrajectory
"NoTrust","Teilnehmer A hat Ihnen keine 2 Punkte übermittelt.","Payback","0","undefined","0","0","0","60","1080","241","0","2","2471","0","legacy","[11, 21, 31, 41, 51, 61, 71, 81, 91, 101, 111, 121, 131, 141, 151, 161, 171, 181, 191, 201, 211, 221, 231, 241, 251, 261, 271, 281, 291, 301, 311, 321, 331, 341, 351, 361, 371, 381, 391, 401, 411, 421, 431, 441, 451, 461, 471, 481, 491, 501, 511, 521, 531, 541, 551, 561, 571, 581, 591, 601, 611, 621, 631, 641, 651, 661, 671, 681, 691, 701, 711, 721, 731, 741, 751, 761, 771, 781, 791, 801, 811, 821, 831, 841, 851, 861, 871, 881, 891, 901, 911, 921, 931, 941, 951, 961, 971, 981, 991, 1001, 1011, 1021, 1031, 1041, 1051, 1061, 1071, 1081, 1091, 1101, 1111, 1121, 1131, 1141, 1151, 1161, 1171, 1181, 1191, 1201, 1211, 1221, 1231, 1241, 1251, 1261, 1271, 1281, 1291, 1301, 1311, 1321, 1331, 1341, 1351, 1361, 1371, 1381, 1391, 1401, 1411, 1421, 1431, 1441, 1451, 1461, 1471, 1481, 1491, 1501, 1511, 1521, 1531, 1541, 1551, 1561, 1571, 1581, 1591, 1601, 1611, 1621, 1631, 1641, 1651, 1661, 1671, 1681, 1691, 1701, 1711, 1721, 1731, 1741, 1751, 1761, 1771, 1781, 1791, 1801, 1811, 1821, 1831, 1841, 1851, 1861, 1871, 1881, 1891, 1901, 1911, 1921, 1931, 1941, 1951, 1961, 1971, 1981, 1991, 2001, 2011, 2021, 2031, 2041, 2051, 2061, 2071, 2081, 2091, 2101, 2111, 2121, 2131, 2141, 2151, 2161, 2171, 2181, 2191, 2201, 2211, 2221, 2231, 2241, 2251, 2261, 2271, 2281, 2291, 2301, 2311, 2321, 2331, 2341, 2351, 2361, 2371, 2381, 2391, 2401, 2411, 2421, 2431, 2441, 2451, 2461, 2471]","1092","1920","[960, 960, 960, 960, 960, 960, 960, 960, 960, 960, 960, 960, 960, 960, 960, 960, 960, 960, 960, 960, 960, 961, 962, 973, 980, 986, 990, 1000, 1005, 1005, 1005, 1005, 1005, 1005, 1007, 1009, 1012, 1015, 1015, 1015, 1015, 1010, 1006, 997, 992, 989, 986, 981, 978, 975, 973, 966, 964, 962, 960, 958, 958, 958, 958, 958, 958, 958, 958, 958, 957, 957, 955, 953, 951, 950, 948, 945, 943, 941, 938, 934, 933, 931, 930, 928, 927, 925, 924, 918, 916, 915, 913, 911, 910, 910, 908, 906, 905, 903, 901, 897, 894, 890, 885, 876, 872, 867, 863, 854, 849, 845, 838, 827, 818, 811, 796, 789, 783, 775, 763, 755, 750, 744, 732, 728, 723, 719, 709, 704, 699, 694, 684, 678, 676, 669, 659, 654, 650, 644, 630, 626, 620, 615, 608, 605, 603, 600, 594, 591, 588, 584, 577, 573, 567, 563, 552, 546, 543, 539, 533, 529, 524, 521, 515, 510, 505, 499, 485, 474, 467, 457, 442, 436, 429, 427, 423, 423, 422, 421, 417, 414, 410, 407, 398, 392, 386, 378, 364, 357, 351, 343, 328, 321, 313, 307, 295, 289, 284, 278, 263, 256, 249, 243, 236, 231, 228, 227, 224, 220, 220, 218, 216, 213, 211, 210, 208, 203, 202, 199, 198, 195, 195, 194, 193, 192, 192, 192, 192, 191, 191, 191, 191, 191, 191, 191, 191, 191, 191, 191, 191, 191, 191, 191, 191, 191, 191, 191, 191, 191, 191, 191, 191]","[1010, 1010, 1010, 1010, 1010, 1010, 1010, 1010, 1010, 1010, 1010, 1010, 1010, 1010, 1010, 1010, 1008, 1007, 1004, 994, 987, 977, 966, 937, 920, 895, 858, 791, 753, 722, 689, 622, 592, 564, 532, 471, 436, 410, 385, 332, 309, 284, 265, 222, 208, 191, 180, 158, 147, 139, 130, 115, 110, 107, 103, 101, 101, 101, 101, 101, 101, 101, 101, 101, 101, 101, 102, 103, 105, 106, 107, 109, 110, 112, 113, 115, 116, 116, 117, 118, 119, 120, 120, 123, 124, 124, 124, 124, 124, 124, 124, 124, 124, 124, 124, 123, 122, 120, 119, 117, 117, 115, 115, 115, 115, 115, 115, 115, 115, 116, 118, 118, 118, 120, 122, 123, 123, 125, 126, 126, 127, 129, 130, 131, 131, 132, 134, 134, 134, 134, 135, 135, 135, 135, 136, 136, 137, 139, 140, 140, 140, 140, 141, 141, 141, 141, 141, 141, 141, 141, 141, 141, 141, 141, 141, 141, 140, 140, 139, 138, 138, 137, 135, 133, 133, 130, 128, 127, 126, 126, 125, 125, 125, 125, 124, 124, 124, 124, 124, 124, 124, 124, 122, 120, 119, 119, 119, 118, 118, 118, 118, 118, 118, 118, 117, 117, 117, 117, 117, 117, 117, 117, 117, 116, 116, 116, 115, 114, 114, 113, 112, 110, 110, 108, 108, 107, 106, 106, 105, 104, 104, 104, 104, 103, 103, 103, 103, 103, 103, 103, 103, 103, 103, 103, 103, 103, 103, 103, 103, 103, 103, 103, 103, 103, 103, 103, 103]"
"Trust","Teilnehmer A hat Ihnen 2 Punkte übermittelt.","Payback","1","undefined","1","0","0","60","1080","311","5","1","1582","0","legacy","[11, 21, 31, 41, 51, 61, 71, 81, 91, 101, 111, 121, 131, 141, 151, 161, 171, 181, 191, 201, 211, 221, 231, 241, 251, 261, 271, 281, 291, 301, 311, 321, 331, 341, 351, 361, 371, 381, 391, 401, 411, 421, 431, 441, 451, 461, 471, 481, 491, 501, 511, 521, 531, 541, 551, 561, 571, 581, 591, 601, 611, 621, 631, 641, 651, 661, 671, 681, 691, 701, 711, 721, 731, 741, 751, 761, 771, 781, 791, 801, 811, 821, 831, 841, 851, 861, 871, 881, 891, 901, 911, 921, 931, 941, 951, 961, 971, 981, 991, 1001, 1011, 1021, 1031, 1041, 1051, 1061, 1071, 1081, 1091, 1101, 1111, 1121, 1131, 1141, 1151, 1161, 1171, 1181, 1191, 1201, 1211, 1221, 1231, 1241, 1251, 1261, 1271, 1281, 1291, 1301, 1311, 1321, 1331, 1341, 1351, 1361, 1371, 1381, 1391, 1401, 1411, 1421, 1431, 1441, 1451, 1461, 1471, 1481, 1491, 1501, 1511, 1521, 1531, 1541, 1551, 1561, 1571, 1581]","1092","1920","[960, 960, 960, 960, 960, 960, 960, 960, 960, 960, 960, 960, 960, 960, 960, 960, 960, 960, 960, 960, 960, 961, 963, 966, 970, 976, 986, 995, 1002, 1010, 1026, 1033, 1039, 1046, 1055, 1058, 1062, 1065, 1071, 1074, 1077, 1079, 1085, 1089, 1090, 1093, 1099, 1104, 1106, 1111, 1125, 1132, 1141, 1148, 1166, 1177, 1184, 1191, 1205, 1212, 1217, 1224, 1239, 1248, 1258, 1264, 1287, 1297, 1305, 1316, 1333, 1342, 1350, 1358, 1376, 1384, 1390, 1397, 1408, 1413, 1417, 1423, 1431, 1438, 1445, 1450, 1457, 1460, 1461, 1464, 1468, 1470, 1471, 1474, 1478, 1481, 1482, 1485, 1486, 1487, 1488, 1489, 1492, 1494, 1497, 1499, 1509, 1515, 1519, 1525, 1537, 1541, 1545, 1549, 1557, 1560, 1564, 1567, 1572, 1573, 1577, 1579, 1583, 1585, 1588, 1590, 1595, 1597, 1599, 1602, 1609, 1611, 1614, 1618, 1625, 1631, 1635, 1637, 1643, 1645, 1646, 1648, 1652, 1654, 1657, 1660, 1668, 1671, 1676, 1679, 1682, 1682, 1682, 1682, 1682, 1682, 1682, 1682]","[1010, 1010, 1010, 1010, 1010, 1010, 1010, 1010, 1010, 1010, 1010, 1010, 1010, 1010, 1010, 1010, 1010, 1010, 1010, 1010, 1008, 1007, 1001, 996, 992, 983, 969, 959, 952, 945, 928, 921, 915, 908, 894, 889, 883, 878, 867, 861, 856, 853, 846, 838, 836, 831, 822, 816, 813, 805, 789, 781, 769, 761, 742, 730, 721, 712, 693, 683, 674, 663, 641, 627, 615, 605, 575, 560, 549, 531, 505, 488, 473, 461, 428, 414, 403, 390, 370, 358, 350, 340, 324, 315, 307, 300, 290, 285, 280, 276, 270, 267, 264, 260, 255, 251, 249, 246, 244, 243, 242, 241, 237, 236, 233, 232, 227, 224, 222, 220, 214, 212, 211, 209, 205, 204, 201, 199, 196, 195, 192, 191, 188, 187, 184, 183, 180, 178, 176, 173, 167, 165, 164, 161, 156, 151, 149, 146, 143, 142, 141, 140, 136, 134, 133, 131, 126, 125, 122, 120, 118, 118, 118, 118, 118, 118, 118, 118]"
"Trust","Teilnehmer A hat Ihnen 2 Punkte übermittelt.","Payback","0","undefined","2","0","0","60","1080","251","10","2","1389","0","legacy","[11, 21, 31, 41, 51, 61, 71, 81, 91, 101, 111, 121, 131, 141, 151, 161, 171, 181, 191, 201, 211, 221, 231, 241, 251, 261, 271, 281, 291, 301, 311, 321, 331, 341, 351, 361, 371, 381, 391, 401, 411, 421, 431, 441, 451, 461, 471, 481, 491, 501, 511, 521, 531, 541, 551, 561, 571, 581, 591, 601, 611, 621, 631, 641, 651, 661, 671, 681, 691, 701, 711, 721, 731, 741, 751, 761, 771, 781, 791, 801, 811, 821, 831, 841, 851, 861, 871, 881, 891, 901, 911, 921, 931, 941, 951, 961, 971, 981, 991, 1001, 1011, 1021, 1031, 1041, 1051, 1061, 1071, 1081, 1091, 1101, 1111, 1121, 1131, 1141, 1151, 1161, 1171, 1181, 1191, 1201, 1211, 1221, 1231, 1241, 1251, 1261, 1271, 1281, 1291, 1301, 1311, 1321, 1331, 1341, 1351, 1361, 1371, 1381]","1092","1920","[960, 961, 961, 961, 961, 961, 961, 961, 961, 961, 961, 961, 961, 961, 961, 961, 961, 961, 961, 961, 961, 960, 952, 947, 938, 924, 862, 836, 809, 776, 715, 689, 665, 648, 618, 605, 593, 582, 557, 536, 510, 478, 419, 386, 355, 316, 249, 226, 204, 197, 182, 176, 173, 171, 167, 166, 165, 163, 161, 159, 157, 155, 150, 148, 146, 145, 142, 142, 142, 142, 141, 141, 140, 139, 138, 138, 137, 137, 136, 136, 136, 135, 135, 135, 134, 134, 134, 134, 134, 133, 133, 133, 132, 132, 132, 132, 132, 132, 132, 132, 132, 132, 132, 132, 132, 132, 132, 132, 132, 132, 132, 132, 132, 132, 132, 132, 132, 132, 132, 132, 132, 132, 132, 132, 132, 132, 132, 132, 132, 132, 132, 132, 132, 132, 132, 132, 132, 132]","[1010, 1011, 1011, 1011, 1011, 1011, 1011, 1011, 1011, 1011, 1011, 1011, 1011, 1011, 1011, 1011, 1011, 1008, 998, 991, 985, 976, 958, 946, 933, 913, 851, 819, 790, 760, 704, 679, 659, 639, 601, 584, 564, 548, 515, 496, 475, 447, 406, 382, 362, 335, 289, 269, 254, 247, 228, 221, 218, 213, 207, 205, 202, 201, 198, 194, 191, 189, 179, 176, 171, 168, 162, 162, 161, 160, 159, 157, 155, 150, 144, 140, 134, 132, 127, 125, 123, 122, 120, 119, 118, 117, 113, 111, 110, 108, 107, 105, 105, 104, 104, 104, 104, 104, 104, 104, 104, 104, 104, 104, 104, 104, 104, 104, 104, 104, 104, 104, 104, 104, 104, 104, 104, 104, 104, 104, 104, 104, 104, 104, 104, 104, 104, 104, 104, 104, 104, 104, 104, 104, 104, 104, 104, 104]"
"Promise","Wie oft werden Sie die Hälfte zurückgeben?","Promise","1","undefined","2","0","1","60","1080","271","10","1","1032","0","legacy","[11, 21, 31, 41, 51, 61, 71, 81, 91, 101, 111, 121, 131, 141, 151, 161, 171, 181, 191, 201, 211, 221, 231, 241, 251, 261, 271, 281, 291, 301, 311, 321, 331, 341, 351, 361, 371, 381, 391, 401, 411, 421, 431, 441, 451, 461, 471, 481, 491, 501, 511, 521, 531, 541, 551, 561, 571, 581, 591, 601, 611, 621, 631, 641, 651, 661, 671, 681, 691, 701, 711, 721, 731, 741, 751, 761, 771, 781, 791, 801, 811, 821, 831, 841, 851, 861, 871, 881, 891, 901, 911, 921, 931, 941, 951, 961, 971, 981, 991, 1001, 1011, 1021, 1031]","1092","1920","[960, 960, 960, 960, 960, 960, 960, 960, 960, 960, 960, 960, 960, 960, 960, 960, 960, 960, 960, 960, 961, 963, 968, 981, 988, 995, 1004, 1019, 1024, 1031, 1039, 1064, 1079, 1088, 1105, 1132, 1149, 1165, 1184, 1216, 1231, 1245, 1258, 1281, 1290, 1298, 1305, 1320, 1325, 1330, 1336, 1348, 1356, 1361, 1367, 1379, 1384, 1389, 1391, 1399, 1404, 1410, 1413, 1427, 1434, 1442, 1449, 1467, 1476, 1488, 1500, 1526, 1538, 1550, 1561, 1588, 1601, 1615, 1625, 1647, 1654, 1659, 1664, 1667, 1670, 1670, 1670, 1670, 1671, 1672, 1674, 1675, 1675, 1675, 1675, 1675, 1675, 1675, 1675, 1675, 1675, 1675, 1675]","[1010, 1010, 1010, 1010, 1010, 1010, 1010, 1010, 1010, 1010, 1010, 1010, 1010, 1010, 1010, 1010, 1010, 1010, 1010, 1010, 1005, 999, 989, 969, 957, 942, 924, 876, 854, 832, 804, 741, 707, 681, 646, 590, 562, 533, 505, 460, 435, 413, 396, 362, 350, 338, 328, 308, 300, 294, 285, 270, 261, 254, 247, 233, 229, 226, 225, 220, 218, 213, 213, 205, 201, 197, 193, 184, 179, 175, 169, 158, 153, 147, 144, 132, 126, 120, 115, 105, 102, 100, 96, 94, 93, 93, 93, 92, 91, 91, 91, 90, 90, 90, 90, 90, 90, 90, 90, 90, 90, 90, 90]"
"Trust","Teilnehmer A hat Ihnen 2 Punkte übermittelt.","Payback","1","undefined","3","0","1","60","1080","291","5","1","1237","0","legacy","[11, 21, 31, 41, 51, 61, 71, 81, 91, 101, 111, 121, 131, 141, 151, 161, 171, 181, 191, 201, 211, 221, 231, 241, 251, 261, 271, 281, 291, 301, 311, 321, 331, 341, 351, 361, 371, 381, 391, 401, 411, 421, 431, 441, 451, 461, 471, 481, 491, 501, 511, 521, 531, 541, 551, 561, 571, 581, 591, 601, 611, 621, 631, 641, 651, 661, 671, 681, 691, 701, 711, 721, 731, 741, 751, 761, 771, 781, 791, 801, 811, 821, 831, 841, 851, 861, 871, 881, 891, 901, 911, 921, 931, 941, 951, 961, 971, 981, 991, 1001, 1011, 1021, 1031, 1041, 1051, 1061, 1071, 1081, 1091, 1101, 1111, 1121, 1131, 1141, 1151, 1161, 1171, 1181, 1191, 1201, 1211, 1221, 1231]","1092","1920","[960, 960, 960, 960, 960, 960, 960, 960, 960, 960, 960, 960, 960, 960, 960, 960, 960, 960, 960, 960, 960, 960, 960, 960, 961, 963, 971, 974, 978, 984, 993, 997, 1000, 1006, 1016, 1025, 1033, 1042, 1058, 1065, 1068, 1073, 1085, 1093, 1103, 1115, 1154, 1180, 1209, 1234, 1269, 1275, 1282, 1290, 1300, 1308, 1316, 1327, 1351, 1364, 1378, 1390, 1413, 1418, 1425, 1432, 1443, 1447, 1450, 1456, 1465, 1469, 1474, 1479, 1486, 1489, 1494, 1496, 1501, 1506, 1510, 1515, 1526, 1531, 1536, 1541, 1551, 1556, 1560, 1565, 1575, 1579, 1583, 1588, 1596, 1599, 1605, 1612, 1624, 1630, 1639, 1644, 1654, 1657, 1660, 1662, 1665, 1666, 1668, 1669, 1671, 1672, 1673, 1675, 1676, 1677, 1678, 1678, 1678, 1678, 1678, 1678, 1678]","[1010, 1010, 1010, 1010, 1010, 1010, 1010, 1010, 1010, 1010, 1010, 1010, 1010, 1010, 1009, 1007, 1006, 1004, 1001, 999, 997, 995, 989, 985, 979, 973, 953, 946, 937, 928, 912, 906, 900, 894, 879, 870, 861, 853, 837, 831, 826, 821, 806, 799, 790, 781, 747, 720, 686, 657, 615, 605, 596, 586, 567, 552, 537, 520, 482, 457, 440, 423, 391, 384, 373, 365, 347, 338, 331, 322, 308, 301, 295, 287, 276, 273, 267, 262, 251, 246, 240, 235, 224, 220, 213, 207, 195, 190, 186, 181, 168, 164, 160, 155, 148, 145, 139, 134, 124, 120, 114, 110, 103, 101, 98, 96, 93, 92, 89, 89, 86, 85, 83, 82, 81, 79, 79, 78, 78, 78, 78, 78, 78]"
"Trust","Teilnehmer A hat Ihnen 2 Punkte übermittelt.","Payback","1","undefined","4","0","1","60","1080","201","5","1","1014","0","legacy","[11, 21, 31, 41, 51, 61, 71, 81, 91, 101, 111, 121, 131, 141, 151, 161, 171, 181, 191, 201, 211, 221, 231, 241, 251, 261, 271, 281, 291, 301, 311, 321, 331, 341, 351, 361, 371, 381, 391, 401, 411, 421, 431, 441, 451, 461, 471, 481, 491, 501, 511, 521, 531, 541, 551, 561, 571, 581, 591, 601, 611, 621, 631, 641, 651, 661, 671, 681, 691, 701, 711, 721, 731, 741, 751, 761, 771, 781, 791, 801, 811, 821, 831, 841, 851, 861, 871, 881, 891, 901, 911, 921, 931, 941, 951, 961, 971, 981, 991, 1001, 1011]","1092","1920","[960, 960, 960, 960, 960, 960, 960, 960, 960, 960, 960, 960, 960, 960, 964, 967, 970, 975, 987, 999, 1012, 1029, 1068, 1089, 1110, 1132, 1169, 1185, 1203, 1217, 1251, 1276, 1295, 1315, 1343, 1354, 1361, 1370, 1385, 1393, 1401, 1409, 1423, 1430, 1435, 1439, 1445, 1448, 1451, 1454, 1464, 1470, 1478, 1485, 1499, 1503, 1508, 1513, 1524, 1530, 1537, 1545, 1562, 1571, 1580, 1590, 1603, 1608, 1612, 1619, 1629, 1632, 1637, 1639, 1647, 1650, 1654, 1659, 1666, 1670, 1674, 1678, 1684, 1686, 1688, 1691, 1693, 1697, 1699, 1700, 1702, 1704, 1705, 1705, 1705, 1705, 1705, 1705, 1705, 1705, 1705]","[1010, 1010, 1010, 1010, 1010, 1010, 1010, 1010, 1010, 1010, 1006, 1003, 1000, 996, 985, 978, 972, 963, 940, 923, 905, 887, 843, 817, 789, 765, 730, 716, 697, 682, 651, 632, 614, 600, 579, 571, 565, 557, 543, 537, 529, 520, 499, 487, 476, 464, 442, 431, 423, 413, 393, 381, 368, 358, 337, 330, 322, 314, 298, 289, 281, 271, 252, 243, 233, 225, 212, 206, 202, 194, 182, 177, 172, 167, 156, 151, 145, 139, 128, 123, 118, 111, 104, 99, 95, 89, 83, 78, 74, 71, 68, 64, 64, 63, 63, 63, 63, 63, 63, 63, 63]"
"Trust","Teilnehmer A hat Ihnen 2 Punkte übermittelt.","Payback","1","undefined","5","0","1","60","1080","331","5","1","1629","0","legacy","[11, 21, 31, 41, 51, 61, 71, 81, 91, 101, 111, 121, 131, 141, 151, 161, 171, 181, 191, 201, 211, 221, 231, 241, 251, 261, 271, 281, 291, 301, 311, 321, 331, 341, 351, 361, 371, 381, 391, 401, 411, 421, 431, 441, 451, 461, 471, 481, 491, 501, 511, 521, 531, 541, 551, 561, 571, 581, 591, 601, 611, 621, 631, 641, 651, 661, 671, 681, 691, 701, 711, 721, 731, 741, 751, 761, 771, 781, 791, 801, 811, 821, 831, 841, 851, 861, 871, 881, 891, 901, 911, 921, 931, 941, 951, 961, 971, 981, 991, 1001, 1011, 1021, 1031, 1041, 1051, 1061, 1071, 1081, 1091, 1101, 1111, 1121, 1131, 1141, 1151, 1161, 1171, 1181, 1191, 1201, 1211, 1221, 1231, 1241, 1251, 1261, 1271, 1281, 1291, 1301, 1311, 1321, 1331, 1341, 1351, 1361, 1371, 1381, 1391, 1401, 1411, 1421, 1431, 1441, 1451, 1461, 1471, 1481, 1491, 1501, 1511, 1521, 1531, 1541, 1551, 1561, 1571, 1581, 1591, 1601, 1611, 1621]","1092","1920","[960, 960, 960, 960, 960, 960, 960, 960, 960, 960, 960, 960, 960, 960, 960, 960, 960, 960, 961, 961, 961, 961, 961, 961, 961, 961, 961, 961, 961, 961, 963, 965, 968, 971, 980, 985, 991, 993, 1002, 1005, 1010, 1014, 1024, 1029, 1034, 1040, 1054, 1066, 1076, 1083, 1104, 1115, 1125, 1136, 1153, 1159, 1166, 1171, 1185, 1192, 1200, 1210, 1231, 1243, 1256, 1270, 1293, 1303, 1315, 1325, 1346, 1355, 1366, 1376, 1402, 1418, 1431, 1442, 1461, 1470, 1478, 1487, 1500, 1509, 1517, 1527, 1539, 1546, 1554, 1562, 1578, 1585, 1591, 1597, 1611, 1619, 1629, 1634, 1653, 1663, 1672, 1682, 1702, 1707, 1713, 1718, 1726, 1730, 1733, 1735, 1739, 1741, 1742, 1742, 1744, 1744, 1744, 1744, 1744, 1744, 1744, 1744, 1744, 1744, 1744, 1744, 1744, 1744, 1744, 1744, 1744, 1744, 1744, 1744, 1744, 1744, 1744, 1744, 1744, 1744, 1744, 1744, 1744, 1744, 1744, 1744, 1744, 1744, 1744, 1744, 1744, 1744, 1744, 1744, 1744, 1744, 1744, 1744, 1744, 1744, 1744, 1744]","[1010, 1010, 1010, 1010, 1010, 1010, 1010, 1010, 1010, 1010, 1010, 1010, 1010, 1010, 1010, 1010, 1010, 1010, 1009, 1008, 1005, 1003, 997, 994, 992, 988, 977, 971, 965, 960, 947, 941, 933, 925, 908, 899, 888, 882, 865, 856, 848, 841, 823, 816, 807, 797, 774, 759, 745, 736, 712, 699, 689, 677, 661, 655, 648, 642, 630, 624, 617, 609, 591, 583, 573, 564, 547, 540, 532, 524, 509, 501, 493, 485, 458, 442, 429, 419, 401, 390, 381, 372, 357, 345, 336, 325, 307, 297, 283, 273, 253, 244, 234, 226, 208, 197, 186, 178, 157, 146, 136, 122, 102, 93, 84, 75, 62, 54, 48, 41, 33, 27, 25, 23, 19, 19, 18, 17, 17, 17, 17, 17, 17, 17, 17, 17, 17, 17, 17, 17, 17, 17, 17, 17, 17, 17, 17, 17, 17, 17, 17, 20, 23, 24, 24, 26, 27, 29, 30, 30, 33, 33, 33, 33, 33, 33, 33, 33, 33, 33, 33, 33]"
"Promise","Wie oft werden Sie die Hälfte zurückgeben?","Promise","0","undefined","5","0","2","60","1080","261","5","2","959","0","legacy","[11, 21, 31, 41, 51, 61, 71, 81, 91, 101, 111, 121, 131, 141, 151, 161, 171, 181, 191, 201, 211, 221, 231, 241, 251, 261, 271, 281, 291, 301, 311, 321, 331, 341, 351, 361, 371, 381, 391, 401, 411, 421, 431, 441, 451, 461, 471, 481, 491, 501, 511, 521, 531, 541, 551, 561, 571, 581, 591, 601, 611, 621, 631, 641, 651, 661, 671, 681, 691, 701, 711, 721, 731, 741, 751, 761, 771, 781, 791, 801, 811, 821, 831, 841, 851, 861, 871, 881, 891, 901, 911, 921, 931, 941, 951]","1092","1920","[960, 960, 960, 960, 960, 960, 960, 960, 960, 960, 960, 960, 960, 960, 960, 960, 960, 960, 960, 961, 961, 961, 961, 954, 948, 936, 917, 872, 846, 823, 797, 736, 704, 672, 641, 583, 558, 540, 521, 489, 478, 467, 455, 436, 429, 422, 415, 404, 399, 393, 389, 380, 376, 370, 366, 356, 352, 348, 345, 336, 332, 324, 319, 307, 300, 293, 286, 272, 266, 260, 254, 245, 242, 240, 237, 233, 233, 233, 233, 233, 233, 233, 233, 233, 232, 232, 232, 232, 232, 232, 232, 232, 232, 232, 232]","[1010, 1010, 1010, 1010, 1010, 1010, 1010, 1010, 1010, 1010, 1010, 1010, 1010, 1010, 1010, 1010, 1010, 1010, 1009, 1003, 996, 991, 984, 965, 949, 923, 882, 813, 779, 751, 722, 664, 636, 608, 582, 529, 505, 488, 467, 431, 412, 398, 378, 346, 333, 319, 308, 292, 284, 277, 272, 259, 253, 244, 238, 227, 221, 217, 213, 204, 200, 194, 188, 174, 169, 162, 157, 148, 143, 139, 135, 130, 127, 125, 124, 120, 119, 119, 119, 119, 119, 119, 119, 118, 116, 116, 116, 116, 116, 116, 116, 116, 116, 116, 116]"
"NoTrust","Teilnehmer A hat Ihnen keine 2 Punkte übermittelt.","Payback","0","undefined","6","0","2","60","1080","261","0","2","959","0","legacy","[11, 21, 31, 41, 51, 61, 71, 81, 91, 101, 111, 121, 131, 141, 151, 161, 171, 181, 191, 201, 211, 221, 231, 241, 251, 261, 271, 281, 291, 301, 311, 321, 331, 341, 351, 361, 371, 381, 391, 401, 411, 421, 431, 441, 451, 461, 471, 481, 491, 501, 511, 521, 531, 541, 551, 561, 571, 581, 591, 601, 611, 621, 631, 641, 651, 661, 671, 681, 691, 701, 711, 721, 731, 741, 751, 761, 771, 781, 791, 801, 811, 821, 831, 841, 851, 861, 871, 881, 891, 901, 911, 921, 931, 941, 951]","1092","1920","[960, 960, 960, 960, 960, 960, 960, 960, 960, 960, 960, 960, 960, 960, 960, 960, 960, 960, 960, 961, 961, 961, 961, 954, 948, 936, 917, 872, 846, 823, 797, 736, 704, 672, 641, 583, 558, 540, 521, 489, 478, 467, 455, 436, 429, 422, 415, 404, 399, 393, 389, 380, 376, 370, 366, 356, 352, 348, 345, 336, 332, 324, 319, 307, 300, 293, 286, 272, 266, 260, 254, 245, 242, 240, 237, 233, 233, 233, 233, 233, 233, 233, 233, 233, 232, 232, 232, 232, 232, 232, 232, 232, 232, 232, 232]","[1010, 1010, 1010, 1010, 1010, 1010, 1010, 1010, 1010, 1010, 1010, 1010, 1010, 1010, 1010, 1010, 1010, 1010, 1009, 1003, 996, 991, 984, 965, 949, 923, 882, 813, 779, 751, 722, 664, 636, 608, 582, 529, 505, 488, 467, 431, 412, 398, 378, 346, 333, 319, 308, 292, 284, 277, 272, 259, 253, 244, 238, 227, 221, 217, 213, 204, 200, 194, 188, 174, 169, 162, 157, 148, 143, 139, 135, 130, 127, 125, 124, 120, 119, 119, 119, 119, 119, 119, 119, 118, 116, 116, 116, 116, 116, 116, 116, 116, 116, 116, 116]"
"Trust","Teilnehmer A hat Ihnen 2 Punkte übermittelt.","Payback","0","undefined","7","0","2","60","1080","261","10","2","1070","0","legacy","[11, 21, 31, 41, 51, 61, 71, 81, 91, 101, 111, 121, 131, 141, 151, 161, 171, 181, 191, 201, 211, 221, 231, 241, 251, 261, 271, 281, 291, 301, 311, 321, 331, 341, 351, 361, 371, 381, 391, 401, 411, 421, 431, 441, 451, 461, 471, 481, 491, 501, 511, 521, 531, 541, 551, 561, 571, 581, 591, 601, 611, 621, 631, 641, 651, 661, 671, 681, 691, 701, 711, 721, 731, 741, 751, 761, 771, 781, 791, 801, 811, 821, 831, 841, 851, 861, 871, 881, 891, 901, 911, 921, 931, 941, 951, 961, 971, 981, 991, 1001, 1011, 1021, 1031, 1041, 1051, 1061]","1092","1920","[960, 960, 960, 960, 960, 960, 960, 960, 960, 960, 960, 960, 960, 960, 960, 960, 960, 960, 959, 958, 956, 954, 949, 946, 937, 922, 894, 870, 852, 830, 773, 746, 713, 681, 617, 572, 531, 497, 445, 419, 404, 394, 372, 367, 357, 351, 340, 336, 332, 328, 321, 319, 319, 316, 314, 313, 311, 311, 309, 309, 308, 308, 306, 306, 304, 303, 299, 299, 296, 296, 292, 290, 288, 286, 280, 277, 274, 271, 265, 261, 258, 255, 250, 246, 243, 240, 233, 226, 222, 217, 211, 209, 207, 206, 204, 203, 203, 203, 203, 203, 203, 203, 203, 203, 203, 203]","[1010, 1010, 1010, 1010, 1010, 1010, 1010, 1010, 1010, 1010, 1010, 1010, 1010, 1010, 1009, 1008, 1005, 1002, 993, 989, 983, 977, 965, 958, 944, 924, 882, 854, 831, 805, 739, 709, 677, 645, 584, 547, 511, 480, 437, 418, 406, 397, 377, 370, 359, 352, 337, 330, 324, 318, 310, 305, 301, 297, 292, 288, 287, 285, 282, 281, 279, 277, 271, 269, 265, 261, 253, 250, 246, 243, 236, 230, 227, 221, 210, 203, 196, 191, 179, 174, 168, 160, 152, 146, 141, 135, 125, 117, 113, 107, 98, 95, 91, 89, 86, 85, 85, 85, 84, 84, 84, 84, 84, 84, 84, 84]"
"Trust","Teilnehmer A hat Ihnen 2 Punkte übermittelt.","Payback","1","undefined","8","0","2","60","1080","241","5","1","1054","0","legacy","[11, 21, 31, 41, 51, 61, 71, 81, 91, 101, 111, 121, 131, 141, 151, 161, 171, 181, 191, 201, 211, 221, 231, 241, 251, 261, 271, 281, 291, 301, 311, 321, 331, 341, 351, 361, 371, 381, 391, 401, 411, 421, 431, 441, 451, 461, 471, 481, 491, 501, 511, 521, 531, 541, 551, 561, 571, 581, 591, 601, 611, 621, 631, 641, 651, 661, 671, 681, 691, 701, 711, 721, 731, 741, 751, 761, 771, 781, 791, 801, 811, 821, 831, 841, 851, 861, 871, 881, 891, 901, 911, 921, 931, 941, 951, 961, 971, 981, 991, 1001, 1011, 1021, 1031, 1041, 1051]","1092","1920","[960, 960, 960, 960, 960, 960, 960, 960, 960, 960, 960, 960, 960, 960, 962, 964, 965, 967, 972, 976, 978, 982, 994, 1010, 1030, 1055, 1112, 1142, 1161, 1181, 1208, 1216, 1225, 1231, 1242, 1251, 1258, 1265, 1285, 1297, 1312, 1328, 1357, 1369, 1381, 1392, 1410, 1421, 1432, 1442, 1459, 1468, 1475, 1481, 1491, 1495, 1497, 1498, 1502, 1503, 1506, 1507, 1512, 1515, 1520, 1525, 1539, 1544, 1550, 1556, 1567, 1573, 1578, 1584, 1591, 1596, 1599, 1605, 1614, 1618, 1624, 1627, 1636, 1639, 1642, 1646, 1652, 1656, 1659, 1660, 1663, 1664, 1664, 1665, 1665, 1665, 1665, 1665, 1665, 1665, 1665, 1665, 1665, 1665, 1665]","[1010, 1010, 1010, 1010, 1010, 1010, 1010, 1010, 1010, 1010, 1010, 1010, 1010, 1010, 1010, 1008, 1006, 1004, 998, 992, 988, 979, 959, 939, 913, 887, 828, 786, 765, 741, 715, 707, 698, 690, 673, 662, 652, 643, 616, 601, 583, 567, 538, 523, 508, 496, 471, 456, 444, 432, 407, 393, 377, 364, 337, 325, 318, 310, 298, 292, 286, 281, 270, 265, 258, 249, 230, 221, 212, 203, 188, 181, 174, 168, 160, 154, 151, 145, 133, 128, 122, 118, 110, 106, 102, 99, 90, 86, 81, 76, 72, 70, 69, 68, 68, 68, 68, 66, 66, 66, 66, 66, 66, 66, 66]"
"Promise","Wie oft werden Sie die Hälfte zurückgeben?","Promise","1","undefined","8","0","3","60","1080","281","5","1","1168","0","legacy","[11, 21, 31, 41, 51, 61, 71, 81, 91, 101, 111, 121, 131, 141, 151, 161, 171, 181, 191, 201, 211, 221, 231, 241, 251, 261, 271, 281, 291, 301, 311, 321, 331, 341, 351, 361, 371, 381, 391, 401, 411, 421, 431, 441, 451, 461, 471, 481, 491, 501, 511, 521, 531, 541, 551, 561, 571, 581, 591, 601, 611, 621, 631, 641, 651, 661, 671, 681, 691, 701, 711, 721, 731, 741, 751, 761, 771, 781, 791, 801, 811, 821, 831, 841, 851, 861, 871, 881, 891, 901, 911, 921, 931, 941, 951, 961, 971, 981, 991, 1001, 1011, 1021, 1031, 1041, 1051, 1061, 1071, 1081, 1091, 1101, 1111, 1121, 1131, 1141, 1151, 1161]","1092","1920","[960, 960, 960, 960, 960, 960, 960, 960, 960, 960, 960, 960, 960, 960, 960, 960, 960, 961, 962, 964, 965, 966, 968, 973, 977, 979, 983, 994, 1002, 1015, 1029, 1069, 1085, 1099, 1108, 1120, 1126, 1129, 1132, 1142, 1147, 1153, 1163, 1189, 1202, 1215, 1226, 1245, 1252, 1261, 1269, 1284, 1292, 1302, 1314, 1337, 1346, 1355, 1366, 1390, 1400, 1412, 1424, 1447, 1454, 1466, 1475, 1498, 1509, 1523, 1533, 1555, 1564, 1576, 1587, 1611, 1626, 1636, 1648, 1668, 1676, 1686, 1695, 1711, 1720, 1725, 1732, 1741, 1745, 1747, 1749, 1754, 1756, 1757, 1758, 1759, 1760, 1760, 1760, 1760, 1760, 1760, 1760, 1760, 1760, 1760, 1760, 1760, 1760, 1760, 1760, 1760, 1760, 1760, 1760, 1760]","[1010, 1010, 1010, 1010, 1010, 1010, 1010, 1010, 1010, 1010, 1010, 1010, 1010, 1010, 1010, 1008, 1007, 1004, 1001, 996, 990, 987, 981, 968, 961, 952, 945, 925, 913, 901, 883, 839, 823, 807, 797, 778, 768, 758, 751, 732, 723, 712, 698, 672, 661, 649, 641, 622, 614, 605, 596, 573, 552, 524, 502, 477, 467, 455, 445, 423, 413, 403, 393, 373, 366, 358, 351, 335, 327, 317, 309, 291, 285, 274, 263, 243, 230, 221, 213, 196, 190, 183, 176, 162, 154, 149, 141, 130, 125, 122, 118, 111, 108, 105, 105, 102, 101, 100, 100, 100, 100, 100, 100, 100, 100, 100, 100, 100, 100, 100, 100, 100, 100, 100, 100, 100]"
"Trust","Teilnehmer A hat Ihnen 2 Punkte übermittelt.","Payback","1","undefined","9","0","3","60","1080","201","5","1","1021","0","legacy","[11, 21, 31, 41, 51, 61, 71, 81, 91, 101, 111, 121, 131, 141, 151, 161, 171, 181, 191, 201, 211, 221, 231, 241, 251, 261, 271, 281, 291, 301, 311, 321, 331, 341, 351, 361, 371, 381, 391, 401, 411, 421, 431, 441, 451, 461, 471, 481, 491, 501, 511, 521, 531, 541, 551, 561, 571, 581, 591, 601, 611, 621, 631, 641, 651, 661, 671, 681, 691, 701, 711, 721, 731, 741, 751, 761, 771, 781, 791, 801, 811, 821, 831, 841, 851, 861, 871, 881, 891, 901, 911, 921, 931, 941, 951, 961, 971, 981, 991, 1001, 1011, 1021]","1092","1920","[960, 960, 960, 960, 960, 960, 960, 960, 960, 960, 960, 960, 960, 960, 971, 978, 987, 997, 1010, 1017, 1028, 1035, 1051, 1059, 1073, 1091, 1136, 1147, 1156, 1164, 1170, 1174, 1177, 1180, 1197, 1213, 1229, 1248, 1269, 1279, 1293, 1304, 1330, 1346, 1358, 1369, 1399, 1410, 1422, 1432, 1451, 1462, 1475, 1483, 1504, 1512, 1520, 1530, 1544, 1551, 1559, 1565, 1582, 1590, 1599, 1604, 1613, 1616, 1619, 1622, 1627, 1629, 1632, 1635, 1637, 1640, 1641, 1643, 1646, 1648, 1652, 1654, 1661, 1665, 1668, 1670, 1672, 1673, 1673, 1673, 1673, 1673, 1673, 1673, 1673, 1673, 1673, 1673, 1673, 1674, 1674, 1674]","[1010, 1010, 1010, 1010, 1010, 1010, 1010, 1010, 1010, 1010, 1010, 1009, 1007, 1003, 990, 981, 972, 962, 948, 939, 925, 916, 891, 881, 865, 846, 803, 793, 784, 775, 759, 750, 744, 737, 704, 674, 654, 633, 591, 565, 536, 510, 451, 419, 390, 364, 308, 284, 262, 244, 211, 197, 179, 166, 139, 125, 115, 101, 80, 70, 59, 50, 34, 27, 22, 16, 12, 10, 9, 8, 8, 6, 6, 6, 6, 7, 8, 10, 13, 15, 17, 19, 24, 26, 27, 29, 31, 32, 32, 32, 32, 32, 32, 32, 32, 32, 32, 32, 32, 32, 32, 32]"
"Trust","Teilnehmer A hat Ihnen 2 Punkte übermittelt.","Payback","1","undefined","10","0","3","60","1080","191","5","1","1070","0","legacy","[11, 21, 31, 41, 51, 61, 71, 81, 91, 101, 111, 121, 131, 141, 151, 161, 171, 181, 191, 201, 211, 221, 231, 241, 251, 261, 271, 281, 291, 301, 311, 321, 331, 341, 351, 361, 371, 381, 391, 401, 411, 421, 431, 441, 451, 461, 471, 481, 491, 501, 511, 521, 531, 541, 551, 561, 571, 581, 591, 601, 611, 621, 631, 641, 651, 661, 671, 681, 691, 701, 711, 721, 731, 741, 751, 761, 771, 781, 791, 801, 811, 821, 831, 841, 851, 861, 871, 881, 891, 901, 911, 921, 931, 941, 951, 961, 971, 981, 991, 1001, 1011, 1021, 1031, 1041, 1051, 1061]","1092","1920","[960, 960, 960, 960, 960, 960, 960, 960, 960, 960, 960, 960, 962, 965, 973, 980, 988, 998, 1031, 1056, 1076, 1099, 1142, 1167, 1190, 1208, 1238, 1250, 1263, 1272, 1289, 1297, 1303, 1311, 1324, 1329, 1337, 1343, 1355, 1361, 1368, 1375, 1388, 1395, 1399, 1404, 1410, 1414, 1416, 1419, 1424, 1425, 1428, 1431, 1437, 1442, 1444, 1447, 1454, 1459, 1464, 1468, 1479, 1485, 1490, 1497, 1510, 1517, 1522, 1528, 1542, 1549, 1557, 1564, 1579, 1585, 1592, 1600, 1614, 1622, 1629, 1634, 1649, 1655, 1659, 1663, 1673, 1677, 1681, 1684, 1688, 1690, 1692, 1693, 1695, 1696, 1697, 1697, 1697, 1697, 1697, 1697, 1697, 1697, 1697, 1697]","[1010, 1010, 1010, 1010, 1010, 1010, 1010, 1010, 1010, 1010, 1010, 1010, 1009, 1004, 990, 981, 971, 955, 914, 885, 862, 836, 791, 767, 745, 730, 704, 694, 683, 675, 658, 649, 641, 634, 617, 610, 599, 592, 574, 567, 556, 548, 529, 521, 515, 507, 496, 490, 487, 482, 471, 468, 463, 457, 449, 443, 440, 436, 425, 420, 414, 409, 395, 388, 383, 376, 359, 350, 342, 334, 315, 307, 298, 289, 273, 265, 256, 249, 228, 219, 210, 202, 183, 172, 165, 156, 141, 135, 130, 123, 115, 111, 109, 108, 104, 103, 102, 101, 101, 101, 101, 101, 101, 101, 101, 101]"
"Trust","Teilnehmer A hat Ihnen 2 Punkte übermittelt.","Payback","1","undefined","11","0","3","60","1080","311","5","1","1421","0","legacy","[11, 21, 31, 41, 51, 61, 71, 81, 91, 101, 111, 121, 131, 141, 151, 161, 171, 181, 191, 201, 211, 221, 231, 241, 251, 261, 271, 281, 291, 301, 311, 321, 331, 341, 351, 361, 371, 381, 391, 401, 411, 421, 431, 441, 451, 461, 471, 481, 491, 501, 511, 521, 531, 541, 551, 561, 571, 581, 591, 601, 611, 621, 631, 641, 651, 661, 671, 681, 691, 701, 711, 721, 731, 741, 751, 761, 771, 781, 791, 801, 811, 821, 831, 841, 851, 861, 871, 881, 891, 901, 911, 921, 931, 941, 951, 961, 971, 981, 991, 1001, 1011, 1021, 1031, 1041, 1051, 1061, 1071, 1081, 1091, 1101, 1111, 1121, 1131, 1141, 1151, 1161, 1171, 1181, 1191, 1201, 1211, 1221, 1231, 1241, 1251, 1261, 1271, 1281, 1291, 1301, 1311, 1321, 1331, 1341, 1351, 1361, 1371, 1381, 1391, 1401, 1411, 1421]","1092","1920","[960, 960, 960, 960, 960, 960, 960, 960, 960, 960, 960, 960, 960, 960, 960, 960, 960, 960, 960, 960, 960, 960, 961, 961, 961, 961, 962, 963, 965, 967, 970, 975, 979, 984, 997, 1003, 1008, 1013, 1025, 1031, 1040, 1047, 1073, 1084, 1099, 1113, 1144, 1162, 1179, 1197, 1236, 1256, 1278, 1293, 1325, 1336, 1349, 1361, 1380, 1387, 1392, 1398, 1403, 1405, 1407, 1409, 1417, 1426, 1432, 1439, 1447, 1449, 1453, 1453, 1456, 1458, 1459, 1461, 1465, 1466, 1471, 1479, 1509, 1533, 1563, 1592, 1653, 1677, 1695, 1717, 1745, 1756, 1768, 1777, 1791, 1795, 1801, 1802, 1805, 1806, 1807, 1807, 1808, 1808, 1808, 1808, 1808, 1808, 1808, 1808, 1808, 1808, 1808, 1808, 1803, 1801, 1797, 1796, 1791, 1788, 1788, 1787, 1783, 1783, 1783, 1781, 1780, 1780, 1780, 1780, 1779, 1779, 1779, 1779, 1779, 1779, 1779, 1779, 1779, 1779, 1779, 1779]","[1010, 1010, 1010, 1010, 1010, 1010, 1010, 1010, 1010, 1010, 1010, 1010, 1010, 1010, 1010, 1010, 1010, 1010, 1010, 1009, 1006, 1004, 998, 994, 988, 984, 974, 967, 957, 945, 919, 904, 892, 878, 847, 836, 827, 816, 793, 782, 766, 753, 719, 706, 688, 673, 645, 630, 615, 602, 575, 559, 545, 533, 511, 506, 497, 490, 479, 474, 469, 465, 460, 458, 456, 454, 446, 437, 430, 421, 408, 405, 401, 398, 393, 388, 386, 381, 374, 371, 366, 355, 322, 298, 268, 240, 187, 165, 146, 125, 83, 66, 47, 31, 11, 2, 0, 0, 0, 0, 0, 0, 0, 0, 0, 0, 0, 0, 0, 0, 0, 0, 0, 2, 17, 24, 33, 38, 47, 53, 54, 58, 66, 67, 68, 70, 72, 73, 73, 73, 74, 74, 74, 74, 74, 74, 74, 74, 74, 74, 74, 74]"
"Promise","Wie oft werden Sie die Hälfte zurückgeben?","Promise","0","undefined","11","0","4","60","1080","301","5","2","1056","0","legacy","[11, 21, 31, 41, 51, 61, 71, 81, 91, 101, 111, 121, 131, 141, 151, 161, 171, 181, 191, 201, 211, 221, 231, 241, 251, 261, 271, 281, 291, 301, 311, 321, 331, 341, 351, 361, 371, 381, 391, 401, 411, 421, 431, 441, 451, 461, 471, 481, 491, 501, 511, 521, 531, 541, 551, 561, 571, 581, 591, 601, 611, 621, 631, 641, 651, 661, 671, 681, 691, 701, 711, 721, 731, 741, 751, 761, 771, 781, 791, 801, 811, 821, 831, 841, 851, 861, 871, 881, 891, 901, 911, 921, 931, 941, 951, 961, 971, 981, 991, 1001, 1011, 1021, 1031, 1041, 1051]","1092","1920","[960, 960, 960, 960, 960, 960, 960, 960, 960, 960, 960, 960, 960, 960, 960, 960, 960, 960, 960, 958, 956, 951, 945, 929, 918, 906, 893, 858, 842, 820, 798, 750, 727, 701, 670, 602, 565, 529, 493, 440, 411, 391, 370, 341, 332, 322, 318, 310, 308, 304, 301, 298, 296, 295, 295, 294, 294, 293, 293, 290, 290, 289, 288, 288, 288, 288, 288, 288, 288, 288, 288, 286, 286, 285, 284, 284, 282, 279, 278, 277, 275, 274, 273, 270, 269, 268, 268, 266, 265, 263, 262, 260, 260, 259, 259, 259, 259, 259, 259, 259, 259, 259, 259, 259, 259]","[1010, 1010, 1010, 1010, 1010, 1010, 1010, 1010, 1010, 1010, 1010, 1010, 1010, 1010, 1010, 1010, 1010, 1010, 1010, 1009, 1008, 1004, 1001, 991, 986, 978, 971, 951, 941, 929, 913, 882, 862, 841, 815, 760, 733, 711, 684, 638, 613, 596, 578, 549, 537, 527, 520, 506, 500, 495, 488, 477, 472, 467, 460, 445, 439, 432, 427, 414, 407, 400, 392, 377, 370, 360, 353, 333, 314, 297, 285, 264, 254, 243, 233, 210, 199, 189, 179, 163, 155, 150, 141, 130, 125, 122, 118, 110, 107, 102, 97, 91, 90, 87, 85, 83, 82, 82, 81, 80, 80, 80, 80, 80, 80]"
"Trust","Teilnehmer A hat Ihnen 2 Punkte übermittelt.","Payback","0","undefined","12","0","4","60","1080","221","10","2","1076","0","legacy","[11, 21, 31, 41, 51, 61, 71, 81, 91, 101, 111, 121, 131, 141, 151, 161, 171, 181, 191, 201, 211, 221, 231, 241, 251, 261, 271, 281, 291, 301, 311, 321, 331, 341, 351, 361, 371, 381, 391, 401, 411, 421, 431, 441, 451, 461, 471, 481, 491, 501, 511, 521, 531, 541, 551, 561, 571, 581, 591, 601, 611, 621, 631, 641, 651, 661, 671, 681, 691, 701, 711, 721, 731, 741, 751, 761, 771, 781, 791, 801, 811, 821, 831, 841, 851, 861, 871, 881, 891, 901, 911, 921, 931, 941, 951, 961, 971, 981, 991, 1001, 1011, 1021, 1031, 1041, 1051, 1061, 1071]","1092","1920","[960, 960, 960, 960, 960, 960, 960, 960, 960, 960, 960, 960, 960, 960, 957, 955, 948, 937, 925, 913, 895, 843, 815, 781, 745, 673, 634, 596, 558, 477, 437, 398, 358, 290, 258, 224, 198, 141, 114, 89, 68, 25, 10, 0, 0, 0, 0, 0, 0, 0, 0, 0, 0, 0, 0, 0, 0, 4, 10, 17, 26, 41, 48, 57, 65, 73, 77, 79, 79, 81, 81, 81, 81, 82, 83, 84, 85, 86, 87, 88, 88, 89, 91, 92, 95, 100, 101, 102, 102, 102, 102, 102, 102, 102, 102, 102, 102, 102, 102, 102, 102, 102, 102, 102, 102, 102, 102]","[1010, 1010, 1010, 1010, 1010, 1010, 1010, 1010, 1010, 1010, 1010, 1010, 1010, 1010, 1007, 1005, 1000, 990, 980, 970, 954, 898, 869, 838, 798, 710, 665, 624, 584, 507, 476, 444, 414, 357, 331, 305, 282, 234, 211, 190, 171, 130, 113, 94, 79, 45, 33, 19, 3, 0, 0, 0, 0, 0, 0, 0, 0, 0, 0, 0, 0, 0, 2, 7, 15, 24, 28, 30, 32, 34, 34, 34, 35, 37, 37, 40, 41, 42, 44, 45, 45, 46, 48, 49, 51, 54, 55, 55, 55, 55, 55, 55, 55, 55, 55, 55, 55, 55, 55, 55, 55, 55, 55, 55, 55, 55, 55]"
"Trust","Teilnehmer A hat Ihnen 2 Punkte übermittelt.","Payback","0","undefined","13","0","4","60","1080","391","10","2","965","0","legacy","[11, 21, 31, 41, 51, 61, 71, 81, 91, 101, 111, 121, 131, 141, 151, 161, 171, 181, 191, 201, 211, 221, 231, 241, 251, 261, 271, 281, 291, 301, 311, 321, 331, 341, 351, 361, 371, 381, 391, 401, 411, 421, 431, 441, 451, 461, 471, 481, 491, 501, 511, 521, 531, 541, 551, 561, 571, 581, 591, 601, 611, 621, 631, 641, 651, 661, 671, 681, 691, 701, 711, 721, 731, 741, 751, 761, 771, 781, 791, 801, 811, 821, 831, 841, 851, 861, 871, 881, 891, 901, 911, 921, 931, 941, 951, 961]","1092","1920","[960, 960, 960, 960, 960, 960, 960, 960, 960, 960, 960, 960, 960, 960, 960, 960, 960, 959, 958, 958, 957, 957, 956, 955, 955, 953, 950, 948, 947, 944, 938, 936, 932, 928, 919, 912, 906, 899, 875, 863, 841, 818, 763, 740, 717, 693, 649, 626, 611, 591, 558, 541, 518, 498, 441, 415, 388, 358, 313, 295, 279, 265, 233, 218, 205, 196, 176, 170, 163, 157, 145, 138, 135, 130, 121, 119, 114, 110, 109, 109, 108, 107, 107, 107, 107, 107, 107, 107, 107, 107, 107, 107, 107, 107, 107, 107]","[1010, 1010, 1010, 1010, 1010, 1010, 1010, 1010, 1010, 1010, 1010, 1010, 1010, 1010, 1010, 1010, 1010, 1010, 1010, 1009, 1008, 1007, 1006, 1005, 1004, 1002, 1001, 1000, 998, 996, 992, 990, 986, 983, 970, 962, 952, 943, 918, 903, 882, 860, 816, 798, 778, 758, 721, 702, 688, 667, 631, 613, 584, 558, 495, 468, 441, 412, 359, 339, 314, 294, 249, 231, 214, 200, 171, 161, 149, 141, 122, 112, 102, 97, 77, 68, 59, 52, 46, 44, 43, 42, 42, 42, 42, 42, 42, 42, 42, 42, 42, 42, 42, 42, 42, 42]"
"Trust","Teilnehmer A hat Ihnen 2 Punkte übermittelt.","Payback","0","undefined","14","0","4","60","1080","201","10","2","886","0","legacy","[11, 21, 31, 41, 51, 61, 71, 81, 91, 101, 111, 121, 131, 141, 151, 161, 171, 181, 191, 201, 211, 221, 231, 241, 251, 261, 271, 281, 291, 301, 311, 321, 331, 341, 351, 361, 371, 381, 391, 401, 411, 421, 431, 441, 451, 461, 471, 481, 491, 501, 511, 521, 531, 541, 551, 561, 571, 581, 591, 601, 611, 621, 631, 641, 651, 661, 671, 681, 691, 701, 711, 721, 731, 741, 751, 761, 771, 781, 791, 801, 811, 821, 831, 841, 851, 861, 871, 881]","1092","1920","[960, 960, 960, 960, 960, 960, 960, 960, 960, 960, 960, 960, 960, 960, 956, 954, 949, 945, 930, 920, 908, 894, 860, 837, 813, 782, 716, 681, 643, 609, 556, 536, 514, 500, 466, 450, 434, 420, 393, 380, 370, 361, 347, 337, 331, 319, 299, 292, 283, 279, 274, 274, 272, 272, 271, 270, 267, 267, 260, 255, 249, 244, 241, 240, 240, 240, 238, 238, 237, 236, 233, 230, 229, 227, 225, 224, 224, 224, 224, 224, 224, 224, 224, 224, 224, 224, 224, 224]","[1010, 1010, 1010, 1010, 1010, 1010, 1010, 1010, 1011, 1011, 1011, 1011, 1011, 1011, 1002, 998, 991, 981, 950, 934, 919, 897, 851, 825, 794, 759, 687, 652, 614, 583, 525, 504, 480, 463, 426, 411, 395, 377, 348, 339, 330, 319, 301, 291, 281, 265, 235, 223, 208, 198, 182, 179, 176, 174, 165, 162, 157, 156, 139, 131, 122, 116, 111, 110, 110, 108, 107, 105, 105, 103, 99, 96, 95, 94, 91, 89, 89, 89, 89, 89, 89, 89, 89, 89, 89, 89, 89, 89]"
"Promise","Wie oft werden Sie die Hälfte zurückgeben?","Promise","1","undefined","14","0","5","60","1080","271","10","1","1346","0","legacy","[11, 21, 31, 41, 51, 61, 71, 81, 91, 101, 111, 121, 131, 141, 151, 161, 171, 181, 191, 201, 211, 221, 231, 241, 251, 261, 271, 281, 291, 301, 311, 321, 331, 341, 351, 361, 371, 381, 391, 401, 411, 421, 431, 441, 451, 461, 471, 481, 491, 501, 511, 521, 531, 541, 551, 561, 571, 581, 591, 601, 611, 621, 631, 641, 651, 661, 671, 681, 691, 701, 711, 721, 731, 741, 751, 761, 771, 781, 791, 801, 811, 821, 831, 841, 851, 861, 871, 881, 891, 901, 911, 921, 931, 941, 951, 961, 971, 981, 991, 1001, 1011, 1021, 1031, 1041, 1051, 1061, 1071, 1081, 1091, 1101, 1111, 1121, 1131, 1141, 1151, 1161, 1171, 1181, 1191, 1201, 1211, 1221, 1231, 1241, 1251, 1261, 1271, 1281, 1291, 1301, 1311, 1321, 1331, 1341]","1092","1920","[960, 960, 960, 960, 960, 960, 960, 960, 960, 960, 960, 960, 960, 960, 960, 960, 960, 960, 960, 960, 960, 964, 966, 970, 981, 988, 1000, 1008, 1027, 1037, 1048, 1060, 1081, 1090, 1098, 1104, 1120, 1130, 1139, 1145, 1157, 1162, 1168, 1173, 1189, 1195, 1204, 1211, 1224, 1231, 1238, 1244, 1260, 1266, 1273, 1282, 1300, 1310, 1322, 1331, 1351, 1359, 1366, 1373, 1384, 1392, 1399, 1407, 1424, 1435, 1446, 1456, 1479, 1487, 1495, 1501, 1515, 1523, 1530, 1534, 1541, 1546, 1552, 1555, 1565, 1568, 1572, 1576, 1586, 1590, 1596, 1600, 1608, 1611, 1614, 1615, 1618, 1619, 1620, 1620, 1621, 1623, 1623, 1623, 1625, 1625, 1626, 1627, 1631, 1632, 1634, 1634, 1640, 1642, 1644, 1648, 1653, 1657, 1659, 1662, 1665, 1665, 1665, 1667, 1667, 1668, 1668, 1669, 1669, 1669, 1669, 1669, 1669, 1669]","[1010, 1010, 1010, 1010, 1010, 1010, 1010, 1010, 1010, 1010, 1010, 1010, 1010, 1010, 1010, 1010, 1010, 1010, 1008, 1005, 997, 989, 981, 972, 951, 941, 925, 916, 892, 882, 871, 860, 839, 831, 812, 790, 742, 721, 707, 697, 676, 670, 663, 655, 637, 629, 619, 612, 595, 586, 576, 567, 549, 542, 534, 526, 511, 501, 492, 483, 461, 452, 443, 435, 424, 418, 413, 408, 388, 374, 360, 346, 322, 311, 301, 290, 270, 260, 251, 245, 233, 224, 216, 213, 200, 195, 191, 188, 177, 175, 170, 166, 160, 158, 154, 154, 150, 149, 148, 148, 146, 145, 144, 144, 142, 141, 141, 139, 135, 135, 133, 132, 129, 127, 125, 123, 120, 118, 116, 115, 114, 113, 113, 113, 113, 112, 112, 112, 112, 112, 112, 112, 112, 112]"
"NoTrust","Teilnehmer A hat Ihnen keine 2 Punkte übermittelt.","Payback","1","undefined","15","0","5","60","1080","271","0","1","1346","0","legacy","[11, 21, 31, 41, 51, 61, 71, 81, 91, 101, 111, 121, 131, 141, 151, 161, 171, 181, 191, 201, 211, 221, 231, 241, 251, 261, 271, 281, 291, 301, 311, 321, 331, 341, 351, 361, 371, 381, 391, 401, 411, 421, 431, 441, 451, 461, 471, 481, 491, 501, 511, 521, 531, 541, 551, 561, 571, 581, 591, 601, 611, 621, 631, 641, 651, 661, 671, 681, 691, 701, 711, 721, 731, 741, 751, 761, 771, 781, 791, 801, 811, 821, 831, 841, 851, 861, 871, 881, 891, 901, 911, 921, 931, 941, 951, 961, 971, 981, 991, 1001, 1011, 1021, 1031, 1041, 1051, 1061, 1071, 1081, 1091, 1101, 1111, 1121, 1131, 1141, 1151, 1161, 1171, 1181, 1191, 1201, 1211, 1221, 1231, 1241, 1251, 1261, 1271, 1281, 1291, 1301, 1311, 1321, 1331, 1341]","1092","1920","[960, 960, 960, 960, 960, 960, 960, 960, 960, 960, 960, 960, 960, 960, 960, 960, 960, 960, 960, 960, 960, 964, 966, 970, 981, 988, 1000, 1008, 1027, 1037, 1048, 1060, 1081, 1090, 1098, 1104, 1120, 1130, 1139, 1145, 1157, 1162, 1168, 1173, 1189, 1195, 1204, 1211, 1224, 1231, 1238, 1244, 1260, 1266, 1273, 1282, 1300, 1310, 1322, 1331, 1351, 1359, 1366, 1373, 1384, 1392, 1399, 1407, 1424, 1435, 1446, 1456, 1479, 1487, 1495, 1501, 1515, 1523, 1530, 1534, 1541, 1546, 1552, 1555, 1565, 1568, 1572, 1576, 1586, 1590, 1596, 1600, 1608, 1611, 1614, 1615, 1618, 1619, 1620, 1620, 1621, 1623, 1623, 1623, 1625, 1625, 1626, 1627, 1631, 1632, 1634, 1634, 1640, 1642, 1644, 1648, 1653, 1657, 1659, 1662, 1665, 1665, 1665, 1667, 1667, 1668, 1668, 1669, 1669, 1669, 1669, 1669, 1669, 1669]","[1010, 1010, 1010, 1010, 1010, 1010, 1010, 1010, 1010, 1010, 1010, 1010, 1010, 1010, 1010, 1010, 1010, 1010, 1008, 1005, 997, 989, 981, 972, 951, 941, 925, 916, 892, 882, 871, 860, 839, 831, 812, 790, 742, 721, 707, 697, 676, 670, 663, 655, 637, 629, 619, 612, 595, 586, 576, 567, 549, 542, 534, 526, 511, 501, 492, 483, 461, 452, 443, 435, 424, 418, 413, 408, 388, 374, 360, 346, 322, 311, 301, 290, 270, 260, 251, 245, 233, 224, 216, 213, 200, 195, 191, 188, 177, 175, 170, 166, 160, 158, 154, 154, 150, 149, 148, 148, 146, 145, 144, 144, 142, 141, 141, 139, 135, 135, 133, 132, 129, 127, 125, 123, 120, 118, 116, 115, 114, 113, 113, 113, 113, 112, 112, 112, 112, 112, 112, 112, 112, 112]"
"Trust","Teilnehmer A hat Ihnen 2 Punkte übermittelt.","Payback","1","undefined","16","0","5","60","1080","221","5","1","1268","0","legacy","[11, 21, 31, 41, 51, 61, 71, 81, 91, 101, 111, 121, 131, 141, 151, 161, 171, 181, 191, 201, 211, 221, 231, 241, 251, 261, 271, 281, 291, 301, 311, 321, 331, 341, 351, 361, 371, 381, 391, 401, 411, 421, 431, 441, 451, 461, 471, 481, 491, 501, 511, 521, 531, 541, 551, 561, 571, 581, 591, 601, 611, 621, 631, 641, 651, 661, 671, 681, 691, 701, 711, 721, 731, 741, 751, 761, 771, 781, 791, 801, 811, 821, 831, 841, 851, 861, 871, 881, 891, 901, 911, 921, 931, 941, 951, 961, 971, 981, 991, 1001, 1011, 1021, 1031, 1041, 1051, 1061, 1071, 1081, 1091, 1101, 1111, 1121, 1131, 1141, 1151, 1161, 1171, 1181, 1191, 1201, 1211, 1221, 1231, 1241, 1251, 1261]","1092","1920","[960, 960, 960, 960, 960, 960, 960, 960, 960, 960, 960, 960, 960, 960, 960, 962, 964, 973, 979, 986, 996, 1010, 1025, 1032, 1044, 1062, 1076, 1089, 1101, 1122, 1132, 1139, 1147, 1163, 1170, 1176, 1186, 1200, 1206, 1213, 1219, 1231, 1238, 1245, 1250, 1261, 1265, 1268, 1273, 1282, 1287, 1292, 1296, 1305, 1309, 1316, 1324, 1344, 1356, 1366, 1377, 1400, 1412, 1422, 1434, 1449, 1456, 1463, 1473, 1484, 1490, 1495, 1500, 1509, 1512, 1515, 1517, 1524, 1526, 1529, 1530, 1537, 1541, 1544, 1547, 1555, 1561, 1565, 1572, 1583, 1589, 1593, 1598, 1607, 1609, 1614, 1618, 1621, 1622, 1625, 1628, 1633, 1634, 1635, 1636, 1637, 1637, 1637, 1639, 1644, 1644, 1646, 1648, 1651, 1651, 1652, 1653, 1654, 1654, 1654, 1654, 1654, 1654, 1654, 1654, 1654]","[1010, 1010, 1010, 1010, 1010, 1010, 1010, 1010, 1010, 1010, 1010, 1010, 1010, 1010, 1010, 1006, 1002, 986, 977, 966, 950, 926, 906, 894, 881, 855, 839, 822, 807, 782, 770, 761, 750, 729, 718, 702, 683, 652, 641, 630, 621, 606, 596, 587, 577, 556, 546, 537, 530, 515, 506, 497, 490, 476, 470, 462, 456, 441, 432, 425, 417, 403, 398, 391, 381, 371, 364, 358, 349, 337, 331, 325, 317, 303, 297, 291, 283, 268, 261, 252, 244, 222, 210, 198, 188, 167, 154, 144, 134, 115, 105, 98, 89, 74, 69, 63, 58, 54, 52, 50, 48, 46, 45, 45, 45, 44, 44, 44, 44, 46, 46, 47, 48, 51, 51, 52, 53, 54, 54, 54, 54, 54, 54, 54, 54, 54]"
"Trust","Teilnehmer A hat Ihnen 2 Punkte übermittelt.","Payback","1","undefined","17","0","5","60","1080","231","5","1","1422","0","legacy","[11, 21, 31, 41, 51, 61, 71, 81, 91, 101, 111, 121, 131, 141, 151, 161, 171, 181, 191, 201, 211, 221, 231, 241, 251, 261, 271, 281, 291, 301, 311, 321, 331, 341, 351, 361, 371, 381, 391, 401, 411, 421, 431, 441, 451, 461, 471, 481, 491, 501, 511, 521, 531, 541, 551, 561, 571, 581, 591, 601, 611, 621, 631, 641, 651, 661, 671, 681, 691, 701, 711, 721, 731, 741, 751, 761, 771, 781, 791, 801, 811, 821, 831, 841, 851, 861, 871, 881, 891, 901, 911, 921, 931, 941, 951, 961, 971, 981, 991, 1001, 1011, 1021, 1031, 1041, 1051, 1061, 1071, 1081, 1091, 1101, 1111, 1121, 1131, 1141, 1151, 1161, 1171, 1181, 1191, 1201, 1211, 1221, 1231, 1241, 1251, 1261, 1271, 1281, 1291, 1301, 1311, 1321, 1331, 1341, 1351, 1361, 1371, 1381, 1391, 1401, 1411, 1421]","1092","1920","[960, 960, 960, 960, 960, 960, 960, 960, 960, 960, 960, 960, 960, 960, 960, 961, 961, 962, 964, 967, 969, 974, 985, 992, 999, 1009, 1028, 1041, 1049, 1058, 1079, 1087, 1096, 1102, 1117, 1124, 1129, 1136, 1148, 1154, 1161, 1164, 1177, 1183, 1189, 1195, 1208, 1216, 1222, 1229, 1249, 1259, 1267, 1281, 1306, 1316, 1331, 1346, 1381, 1397, 1418, 1432, 1462, 1475, 1486, 1497, 1517, 1525, 1535, 1542, 1559, 1568, 1572, 1581, 1599, 1603, 1607, 1613, 1623, 1625, 1628, 1631, 1636, 1638, 1640, 1641, 1646, 1647, 1651, 1653, 1657, 1659, 1662, 1664, 1670, 1673, 1674, 1677, 1681, 1683, 1685, 1686, 1689, 1690, 1691, 1692, 1693, 1693, 1694, 1694, 1694, 1695, 1695, 1696, 1697, 1697, 1698, 1698, 1698, 1699, 1700, 1700, 1700, 1701, 1701, 1703, 1704, 1704, 1705, 1705, 1706, 1706, 1706, 1707, 1708, 1708, 1708, 1708, 1708, 1708, 1708, 1708]","[1010, 1010, 1010, 1010, 1010, 1010, 1010, 1010, 1010, 1010, 1010, 1010, 1010, 1010, 1010, 1009, 1009, 1008, 994, 984, 973, 961, 929, 912, 894, 873, 840, 823, 812, 798, 774, 763, 753, 745, 726, 716, 706, 695, 673, 662, 652, 642, 624, 615, 609, 600, 586, 578, 569, 563, 548, 540, 534, 524, 507, 499, 491, 478, 459, 449, 440, 431, 419, 413, 407, 403, 392, 390, 385, 381, 374, 370, 368, 364, 354, 351, 349, 343, 334, 333, 328, 324, 314, 311, 305, 300, 286, 281, 274, 267, 254, 247, 242, 236, 224, 216, 212, 207, 197, 191, 187, 183, 175, 172, 170, 168, 164, 164, 162, 160, 158, 156, 154, 153, 150, 150, 147, 146, 143, 142, 140, 139, 133, 131, 129, 125, 121, 120, 118, 117, 113, 111, 110, 108, 107, 106, 105, 105, 105, 105, 105, 105]"
"Promise","Wie oft werden Sie die Hälfte zurückgeben?","Promise","0","undefined","17","0","6","60","1080","241","5","2","1080","0","legacy","[11, 21, 31, 41, 51, 61, 71, 81, 91, 101, 111, 121, 131, 141, 151, 161, 171, 181, 191, 201, 211, 221, 231, 241, 251, 261, 271, 281, 291, 301, 311, 321, 331, 341, 351, 361, 371, 381, 391, 401, 411, 421, 431, 441, 451, 461, 471, 481, 491, 501, 511, 521, 531, 541, 551, 561, 571, 581, 591, 601, 611, 621, 631, 641, 651, 661, 671, 681, 691, 701, 711, 721, 731, 741, 751, 761, 771, 781, 791, 801, 811, 821, 831, 841, 851, 861, 871, 881, 891, 901, 911, 921, 931, 941, 951, 961, 971, 981, 991, 1001, 1011, 1021, 1031, 1041, 1051, 1061, 1071]","1092","1920","[960, 960, 960, 960, 960, 960, 960, 960, 960, 960, 960, 960, 960, 960, 960, 960, 960, 960, 960, 955, 950, 939, 926, 879, 853, 822, 772, 691, 645, 603, 559, 463, 422, 383, 346, 278, 243, 218, 193, 148, 128, 112, 99, 77, 69, 63, 56, 48, 46, 43, 43, 41, 41, 41, 41, 43, 44, 47, 50, 54, 57, 59, 62, 66, 69, 71, 73, 78, 79, 80, 81, 84, 86, 88, 91, 95, 96, 97, 99, 100, 101, 102, 102, 104, 105, 106, 108, 110, 110, 110, 110, 110, 111, 112, 112, 112, 112, 112, 112, 112, 112, 112, 112, 112, 112, 112, 112]","[1010, 1010, 1010, 1010, 1010, 1010, 1010, 1010, 1010, 1010, 1010, 1010, 1010, 1010, 1010, 1010, 1010, 1010, 1008, 997, 990, 978, 965, 927, 904, 881, 847, 792, 762, 732, 706, 651, 625, 602, 583, 547, 528, 512, 497, 467, 451, 442, 428, 408, 399, 392, 384, 370, 364, 357, 354, 338, 330, 320, 314, 299, 291, 285, 278, 266, 261, 256, 252, 244, 240, 238, 236, 232, 230, 230, 227, 222, 219, 214, 210, 203, 199, 195, 190, 182, 177, 173, 169, 157, 152, 147, 142, 137, 134, 131, 131, 128, 127, 126, 126, 124, 124, 124, 123, 121, 121, 121, 120, 120, 119, 119, 119]"
"Trust","Teilnehmer A hat Ihnen 2 Punkte übermittelt.","Payback","1","undefined","18","0","6","60","1080","311","5","1","1422","0","legacy","[11, 21, 31, 41, 51, 61, 71, 81, 91, 101, 111, 121, 131, 141, 151, 161, 171, 181, 191, 201, 211, 221, 231, 241, 251, 261, 271, 281, 291, 301, 311, 321, 331, 341, 351, 361, 371, 381, 391, 401, 411, 421, 431, 441, 451, 461, 471, 481, 491, 501, 511, 521, 531, 541, 551, 561, 571, 581, 591, 601, 611, 621, 631, 641, 651, 661, 671, 681, 691, 701, 711, 721, 731, 741, 751, 761, 771, 781, 791, 801, 811, 821, 831, 841, 851, 861, 871, 881, 891, 901, 911, 921, 931, 941, 951, 961, 971, 981, 991, 1001, 1011, 1021, 1031, 1041, 1051, 1061, 1071, 1081, 1091, 1101, 1111, 1121, 1131, 1141, 1151, 1161, 1171, 1181, 1191, 1201, 1211, 1221, 1231, 1241, 1251, 1261, 1271, 1281, 1291, 1301, 1311, 1321, 1331, 1341, 1351, 1361, 1371, 1381, 1391, 1401, 1411, 1421]","1092","1920","[960, 960, 960, 960, 960, 960, 960, 960, 960, 960, 960, 960, 960, 960, 960, 960, 960, 960, 960, 960, 960, 960, 962, 964, 966, 968, 976, 982, 988, 993, 1008, 1015, 1026, 1035, 1058, 1073, 1086, 1096, 1121, 1131, 1144, 1154, 1174, 1180, 1186, 1193, 1207, 1213, 1218, 1228, 1240, 1247, 1257, 1262, 1277, 1282, 1291, 1298, 1314, 1320, 1329, 1337, 1356, 1364, 1375, 1387, 1409, 1419, 1429, 1439, 1463, 1474, 1484, 1494, 1512, 1519, 1526, 1533, 1545, 1551, 1556, 1560, 1573, 1579, 1585, 1591, 1602, 1608, 1615, 1620, 1633, 1638, 1644, 1652, 1666, 1674, 1678, 1685, 1696, 1702, 1707, 1712, 1719, 1723, 1727, 1728, 1729, 1729, 1729, 1730, 1730, 1730, 1730, 1730, 1730, 1730, 1730, 1730, 1730, 1730, 1730, 1730, 1730, 1730, 1730, 1730, 1730, 1730, 1730, 1730, 1730, 1730, 1730, 1730, 1730, 1730, 1730, 1730, 1730, 1730, 1730, 1730]","[1010, 1010, 1010, 1010, 1010, 1010, 1010, 1010, 1010, 1010, 1010, 1010, 1010, 1010, 1010, 1010, 1010, 1010, 1010, 1010, 1010, 1010, 1010, 1008, 1004, 1001, 986, 976, 967, 956, 931, 918, 899, 887, 851, 829, 810, 793, 761, 747, 732, 721, 690, 674, 659, 644, 613, 598, 587, 571, 550, 540, 528, 519, 499, 491, 481, 473, 455, 448, 439, 431, 415, 409, 401, 395, 384, 380, 376, 370, 365, 359, 355, 350, 343, 340, 337, 334, 331, 328, 327, 324, 318, 313, 310, 304, 296, 291, 286, 281, 267, 260, 253, 245, 230, 222, 216, 208, 196, 188, 183, 177, 170, 167, 163, 161, 160, 160, 159, 158, 157, 156, 156, 156, 154, 152, 152, 151, 148, 146, 144, 143, 139, 139, 137, 136, 134, 133, 132, 131, 131, 131, 131, 131, 131, 131, 131, 131, 131, 131, 131, 131]"
"Trust","Teilnehmer A hat Ihnen 2 Punkte übermittelt.","Payback","0","undefined","19","0","6","60","1080","281","10","2","1309","0","legacy","[11, 21, 31, 41, 51, 61, 71, 81, 91, 101, 111, 121, 131, 141, 151, 161, 171, 181, 191, 201, 211, 221, 231, 241, 251, 261, 271, 281, 291, 301, 311, 321, 331, 341, 351, 361, 371, 381, 391, 401, 411, 421, 431, 441, 451, 461, 471, 481, 491, 501, 511, 521, 531, 541, 551, 561, 571, 581, 591, 601, 611, 621, 631, 641, 651, 661, 671, 681, 691, 701, 711, 721, 731, 741, 751, 761, 771, 781, 791, 801, 811, 821, 831, 841, 851, 861, 871, 881, 891, 901, 911, 921, 931, 941, 951, 961, 971, 981, 991, 1001, 1011, 1021, 1031, 1041, 1051, 1061, 1071, 1081, 1091, 1101, 1111, 1121, 1131, 1141, 1151, 1161, 1171, 1181, 1191, 1201, 1211, 1221, 1231, 1241, 1251, 1261, 1271, 1281, 1291, 1301]","1092","1920","[960, 960, 960, 960, 960, 960, 960, 960, 960, 960, 960, 960, 960, 960, 960, 960, 960, 960, 960, 960, 960, 959, 953, 950, 945, 940, 925, 914, 901, 881, 843, 824, 809, 796, 769, 756, 744, 733, 712, 701, 688, 679, 662, 654, 647, 637, 618, 607, 596, 585, 564, 553, 546, 535, 517, 511, 504, 499, 486, 483, 477, 474, 463, 459, 453, 449, 439, 432, 426, 421, 407, 401, 393, 385, 368, 359, 350, 341, 326, 317, 311, 303, 290, 284, 280, 274, 264, 261, 258, 253, 249, 248, 245, 243, 239, 239, 237, 236, 234, 233, 232, 230, 228, 227, 226, 224, 221, 219, 218, 217, 214, 213, 210, 209, 207, 206, 205, 203, 201, 199, 199, 198, 196, 195, 195, 194, 194, 194, 194, 194]","[1010, 1010, 1010, 1010, 1010, 1010, 1010, 1010, 1010, 1010, 1010, 1010, 1010, 1010, 1010, 1010, 1010, 1010, 1010, 1010, 1010, 1010, 999, 992, 985, 976, 953, 939, 922, 901, 867, 850, 836, 825, 801, 789, 778, 767, 741, 728, 713, 703, 682, 672, 663, 653, 633, 621, 613, 604, 585, 577, 569, 561, 543, 534, 527, 519, 505, 499, 492, 487, 472, 466, 457, 451, 438, 432, 425, 420, 409, 403, 397, 390, 378, 371, 366, 359, 346, 338, 333, 327, 314, 306, 300, 291, 278, 270, 264, 258, 247, 244, 239, 235, 225, 222, 219, 216, 209, 206, 203, 200, 190, 188, 183, 179, 170, 165, 162, 159, 153, 150, 145, 143, 138, 135, 132, 129, 126, 123, 121, 119, 115, 114, 113, 112, 111, 111, 111, 111]"
"Trust","Teilnehmer A hat Ihnen 2 Punkte übermittelt.","Payback","1","undefined","20","0","6","60","1080","181","5","1","1005","0","legacy","[11, 21, 31, 41, 51, 61, 71, 81, 91, 101, 111, 121, 131, 141, 151, 161, 171, 181, 191, 201, 211, 221, 231, 241, 251, 261, 271, 281, 291, 301, 311, 321, 331, 341, 351, 361, 371, 381, 391, 401, 411, 421, 431, 441, 451, 461, 471, 481, 491, 501, 511, 521, 531, 541, 551, 561, 571, 581, 591, 601, 611, 621, 631, 641, 651, 661, 671, 681, 691, 701, 711, 721, 731, 741, 751, 761, 771, 781, 791, 801, 811, 821, 831, 841, 851, 861, 871, 881, 891, 901, 911, 921, 931, 941, 951, 961, 971, 981, 991, 1001]","1092","1920","[960, 960, 960, 960, 960, 960, 960, 960, 960, 960, 960, 960, 960, 962, 972, 979, 989, 998, 1016, 1026, 1037, 1045, 1067, 1079, 1091, 1105, 1127, 1138, 1147, 1155, 1171, 1180, 1190, 1199, 1213, 1220, 1230, 1238, 1257, 1266, 1278, 1296, 1329, 1352, 1374, 1400, 1445, 1468, 1490, 1513, 1558, 1581, 1600, 1617, 1646, 1657, 1665, 1673, 1685, 1692, 1695, 1697, 1701, 1702, 1704, 1704, 1705, 1705, 1705, 1705, 1705, 1705, 1705, 1705, 1705, 1705, 1705, 1705, 1705, 1705, 1705, 1705, 1705, 1705, 1705, 1705, 1705, 1705, 1705, 1705, 1705, 1705, 1705, 1705, 1705, 1705, 1705, 1705, 1705, 1705]","[1010, 1010, 1010, 1010, 1010, 1010, 1010, 1010, 1010, 1010, 1010, 1010, 1010, 1005, 989, 976, 958, 934, 890, 872, 850, 832, 787, 765, 742, 710, 653, 629, 608, 590, 563, 542, 523, 510, 485, 472, 453, 441, 412, 395, 380, 360, 331, 313, 297, 278, 246, 230, 214, 197, 165, 149, 135, 124, 103, 95, 90, 83, 75, 72, 70, 67, 64, 63, 61, 61, 60, 60, 60, 60, 60, 60, 60, 60, 60, 60, 60, 60, 60, 60, 60, 60, 60, 60, 60, 60, 60, 60, 60, 60, 60, 60, 60, 60, 60, 60, 60, 60, 60, 60]"
"Promise","Wie oft werden Sie die Hälfte zurückgeben?","Promise","1","undefined","20","0","7","60","1080","241","5","1","841","0","legacy","[11, 21, 31, 41, 51, 61, 71, 81, 91, 101, 111, 121, 131, 141, 151, 161, 171, 181, 191, 201, 211, 221, 231, 241, 251, 261, 271, 281, 291, 301, 311, 321, 331, 341, 351, 361, 371, 381, 391, 401, 411, 421, 431, 441, 451, 461, 471, 481, 491, 501, 511, 521, 531, 541, 551, 561, 571, 581, 591, 601, 611, 621, 631, 641, 651, 661, 671, 681, 691, 701, 711, 721, 731, 741, 751, 761, 771, 781, 791, 801, 811, 821, 831, 841]","1092","1920","[960, 960, 960, 960, 960, 960, 960, 960, 960, 960, 960, 960, 960, 960, 960, 960, 960, 962, 966, 970, 983, 988, 995, 1002, 1021, 1036, 1052, 1071, 1108, 1133, 1152, 1178, 1229, 1254, 1286, 1313, 1370, 1396, 1428, 1459, 1516, 1544, 1566, 1594, 1647, 1678, 1703, 1731, 1782, 1803, 1815, 1827, 1851, 1859, 1869, 1875, 1886, 1890, 1894, 1894, 1896, 1896, 1897, 1897, 1898, 1898, 1898, 1898, 1898, 1898, 1898, 1898, 1898, 1898, 1898, 1898, 1898, 1898, 1898, 1898, 1898, 1898, 1898, 1898]","[1010, 1010, 1010, 1010, 1010, 1010, 1010, 1010, 1010, 1010, 1010, 1010, 1010, 1010, 1010, 1010, 1010, 1006, 999, 991, 972, 961, 945, 931, 892, 865, 842, 814, 766, 730, 702, 670, 610, 583, 553, 528, 480, 457, 433, 409, 365, 346, 330, 308, 272, 253, 236, 215, 178, 160, 149, 139, 119, 113, 104, 99, 87, 83, 78, 76, 73, 72, 71, 69, 67, 65, 64, 63, 62, 62, 62, 62, 62, 62, 62, 62, 62, 62, 62, 62, 62, 62, 62, 62]"
"Trust","Teilnehmer A hat Ihnen 2 Punkte übermittelt.","Payback","1","undefined","21","0","7","60","1080","231","5","1","1046","0","legacy","[11, 21, 31, 41, 51, 61, 71, 81, 91, 101, 111, 121, 131, 141, 151, 161, 171, 181, 191, 201, 211, 221, 231, 241, 251, 261, 271, 281, 291, 301, 311, 321, 331, 341, 351, 361, 371, 381, 391, 401, 411, 421, 431, 441, 451, 461, 471, 481, 491, 501, 511, 521, 531, 541, 551, 561, 571, 581, 591, 601, 611, 621, 631, 641, 651, 661, 671, 681, 691, 701, 711, 721, 731, 741, 751, 761, 771, 781, 791, 801, 811, 821, 831, 841, 851, 861, 871, 881, 891, 901, 911, 921, 931, 941, 951, 961, 971, 981, 991, 1001, 1011, 1021, 1031, 1041]","1092","1920","[960, 960, 960, 960, 960, 960, 960, 960, 960, 960, 960, 960, 960, 960, 960, 960, 965, 970, 986, 992, 1003, 1018, 1050, 1075, 1100, 1121, 1163, 1186, 1203, 1225, 1268, 1293, 1316, 1339, 1394, 1419, 1441, 1465, 1507, 1528, 1551, 1569, 1608, 1625, 1643, 1660, 1689, 1704, 1716, 1725, 1752, 1763, 1773, 1780, 1792, 1796, 1798, 1804, 1811, 1813, 1816, 1817, 1820, 1820, 1820, 1820, 1820, 1820, 1820, 1820, 1820, 1820, 1820, 1820, 1820, 1820, 1820, 1820, 1820, 1820, 1820, 1819, 1811, 1806, 1800, 1795, 1786, 1781, 1777, 1772, 1767, 1766, 1764, 1764, 1764, 1764, 1764, 1764, 1764, 1764, 1764, 1764, 1764, 1764]","[1010, 1010, 1010, 1010, 1010, 1010, 1010, 1010, 1010, 1010, 1010, 1010, 1010, 1010, 1010, 1011, 1010, 1002, 984, 977, 964, 947, 902, 868, 829, 801, 747, 721, 700, 676, 627, 598, 572, 543, 484, 455, 434, 410, 369, 352, 332, 315, 281, 268, 255, 244, 221, 207, 195, 178, 141, 124, 110, 99, 77, 67, 60, 50, 31, 25, 21, 18, 11, 10, 10, 10, 10, 10, 10, 10, 10, 10, 10, 10, 10, 10, 10, 10, 10, 10, 10, 10, 20, 25, 31, 36, 44, 48, 52, 55, 60, 61, 63, 63, 63, 63, 63, 63, 63, 63, 63, 63, 63, 63]"
"Trust","Teilnehmer A hat Ihnen 2 Punkte übermittelt.","Payback","1","undefined","22","0","7","60","1080","241","5","1","902","0","legacy","[11, 21, 31, 41, 51, 61, 71, 81, 91, 101, 111, 121, 131, 141, 151, 161, 171, 181, 191, 201, 211, 221, 231, 241, 251, 261, 271, 281, 291, 301, 311, 321, 331, 341, 351, 361, 371, 381, 391, 401, 411, 421, 431, 441, 451, 461, 471, 481, 491, 501, 511, 521, 531, 541, 551, 561, 571, 581, 591, 601, 611, 621, 631, 641, 651, 661, 671, 681, 691, 701, 711, 721, 731, 741, 751, 761, 771, 781, 791, 801, 811, 821, 831, 841, 851, 861, 871, 881, 891, 901]","1092","1920","[960, 960, 960, 960, 960, 960, 960, 960, 960, 960, 960, 960, 960, 960, 960, 960, 961, 962, 966, 970, 974, 978, 990, 1000, 1014, 1023, 1054, 1067, 1082, 1109, 1161, 1191, 1218, 1243, 1288, 1311, 1333, 1353, 1393, 1410, 1429, 1446, 1477, 1494, 1512, 1523, 1549, 1559, 1571, 1582, 1598, 1605, 1610, 1616, 1627, 1631, 1635, 1640, 1646, 1651, 1654, 1656, 1660, 1661, 1663, 1664, 1666, 1668, 1668, 1669, 1670, 1670, 1670, 1670, 1670, 1670, 1670, 1670, 1670, 1670, 1670, 1670, 1670, 1670, 1670, 1670, 1670, 1670, 1670, 1670]","[1010, 1010, 1010, 1010, 1010, 1010, 1010, 1010, 1010, 1010, 1010, 1010, 1010, 1010, 1010, 1010, 1010, 1010, 1007, 1000, 991, 981, 956, 938, 919, 905, 862, 838, 811, 762, 674, 632, 596, 567, 517, 497, 475, 456, 420, 405, 389, 374, 348, 333, 318, 308, 280, 265, 253, 236, 214, 204, 195, 184, 166, 160, 152, 145, 136, 131, 126, 124, 119, 117, 115, 114, 110, 108, 107, 107, 105, 105, 105, 105, 105, 105, 105, 105, 105, 105, 105, 105, 105, 105, 105, 105, 105, 105, 105, 105]"
"Trust","Teilnehmer A hat Ihnen 2 Punkte übermittelt.","Payback","1","undefined","23","0","7","60","1080","271","5","1","1134","0","legacy","[11, 21, 31, 41, 51, 61, 71, 81, 91, 101, 111, 121, 131, 141, 151, 161, 171, 181, 191, 201, 211, 221, 231, 241, 251, 261, 271, 281, 291, 301, 311, 321, 331, 341, 351, 361, 371, 381, 391, 401, 411, 421, 431, 441, 451, 461, 471, 481, 491, 501, 511, 521, 531, 541, 551, 561, 571, 581, 591, 601, 611, 621, 631, 641, 651, 661, 671, 681, 691, 701, 711, 721, 731, 741, 751, 761, 771, 781, 791, 801, 811, 821, 831, 841, 851, 861, 871, 881, 891, 901, 911, 921, 931, 941, 951, 961, 971, 981, 991, 1001, 1011, 1021, 1031, 1041, 1051, 1061, 1071, 1081, 1091, 1101, 1111, 1121, 1131]","1092","1920","[960, 960, 960, 960, 960, 960, 960, 960, 960, 960, 960, 960, 960, 960, 960, 960, 960, 960, 960, 960, 962, 962, 966, 968, 974, 980, 997, 1007, 1016, 1026, 1050, 1067, 1081, 1099, 1145, 1166, 1190, 1213, 1256, 1282, 1299, 1320, 1361, 1377, 1397, 1416, 1451, 1465, 1481, 1497, 1534, 1550, 1566, 1579, 1597, 1605, 1611, 1617, 1626, 1630, 1632, 1634, 1637, 1638, 1638, 1638, 1638, 1638, 1638, 1638, 1638, 1638, 1638, 1640, 1644, 1648, 1654, 1657, 1663, 1665, 1668, 1668, 1671, 1672, 1673, 1673, 1674, 1674, 1674, 1674, 1674, 1674, 1674, 1674, 1674, 1674, 1674, 1674, 1674, 1674, 1674, 1674, 1674, 1674, 1674, 1674, 1674, 1674, 1674, 1674, 1674, 1674, 1674]","[1010, 1010, 1010, 1010, 1010, 1010, 1010, 1010, 1010, 1010, 1010, 1010, 1010, 1010, 1010, 1010, 1010, 1010, 1010, 1010, 1009, 1006, 995, 988, 979, 968, 939, 923, 906, 890, 847, 814, 790, 757, 680, 642, 601, 563, 489, 458, 433, 404, 348, 323, 295, 274, 233, 218, 199, 179, 142, 126, 110, 99, 78, 69, 60, 53, 39, 34, 33, 28, 25, 24, 24, 24, 24, 24, 24, 24, 24, 24, 23, 23, 23, 26, 31, 37, 44, 46, 50, 50, 54, 55, 56, 57, 60, 60, 60, 60, 60, 60, 60, 60, 60, 60, 60, 60, 60, 60, 60, 60, 60, 60, 60, 60, 60, 60, 60, 60, 60, 60, 60]"
CHF,TotCHF,final_payoff,sum
"10","30","[5, 5, 5, 5]","20"
