Condition,PromiseStage,Stage,accuracy,avg_rt,count_decision_sequence,count_loop1,count_trial_sequence,font_size,height,init_time,payoff,response,rt,subject_nr,synth_backend,tTrajectory,time_experiment,width,xTrajectory,yTrajectory
"Promise","Wie oft werden Sie die Hälfte zurückgeben?","Promise","1","undefined","NA","0","0","60","1080","231","NA","1","1311","0","legacy","[11, 21, 31, 41, 51, 61, 71, 81, 91, 101, 111, 121, 131, 141, 151, 161, 171, 181, 191, 201, 211, 221, 231, 241, 251, 261, 271, 281, 291, 301, 311, 321, 331, 341, 351, 361, 371, 381, 391, 401, 411, 421, 431, 441, 451, 461, 471, 481, 491, 501, 511, 521, 531, 541, 551, 561, 571, 581, 591, 601, 611, 621, 631, 641, 651, 661, 671, 681, 691, 701, 711, 721, 731, 741, 751, 761, 771, 781, 791, 801, 811, 821, 831, 841, 851, 861, 871, 881, 891, 901, 911, 921, 931, 941, 951, 961, 971, 981, 991, 1001, 1011, 1021, 1031, 1041, 1051, 1061, 1071, 1081, 1091, 1101, 1111, 1121, 1131, 1141, 1151, 1161, 1171, 1181, 1191, 1201, 1211, 1221, 1231, 1241, 1251, 1261, 1271, 1281, 1291, 1301]","1140","1920","[960, 960, 960, 960, 960, 960, 960, 960, 960, 960, 960, 960, 960, 960, 960, 960, 958, 954, 950, 945, 943, 940, 936, 928, 924, 917, 905, 877, 857, 838, 823, 789, 773, 756, 740, 699, 681, 657, 633, 600, 587, 579, 571, 555, 548, 540, 532, 511, 502, 492, 483, 468, 462, 455, 448, 429, 420, 411, 401, 385, 379, 372, 367, 358, 356, 352, 348, 337, 331, 323, 318, 307, 302, 297, 293, 283, 280, 274, 271, 263, 261, 257, 253, 249, 247, 246, 244, 238, 235, 231, 226, 217, 211, 206, 201, 192, 190, 185, 182, 172, 170, 166, 165, 161, 161, 159, 158, 155, 154, 154, 152, 151, 151, 150, 150, 149, 148, 147, 145, 142, 142, 141, 141, 141, 141, 141, 141, 141, 141, 141]","[1010, 1010, 1010, 1010, 1010, 1010, 1010, 1010, 1010, 1010, 1010, 1010, 1010, 1010, 1007, 1002, 996, 988, 979, 964, 956, 945, 933, 903, 886, 866, 840, 776, 741, 708, 681, 636, 613, 588, 565, 514, 493, 469, 445, 416, 403, 392, 381, 361, 352, 341, 330, 306, 296, 285, 276, 260, 251, 242, 233, 218, 211, 204, 198, 191, 188, 183, 182, 177, 176, 174, 172, 165, 162, 158, 155, 151, 148, 147, 144, 140, 139, 137, 135, 131, 130, 128, 125, 123, 122, 121, 119, 117, 114, 113, 110, 105, 102, 99, 95, 91, 89, 86, 85, 78, 76, 73, 72, 69, 69, 68, 67, 65, 65, 65, 64, 63, 63, 63, 63, 62, 62, 60, 60, 58, 58, 58, 57, 57, 57, 57, 57, 57, 57, 57]"
Cond,DecisionB,Stage,accuracy,avg_rt,count_decision_sequence,count_loop1,count_trial_sequence,font_size,height,init_time,payoff,response,rt,subject_nr,synth_backend,tTrajectory,time_experiment,width,xTrajectory,yTrajectory
"NoTrust","Teilnehmer A hat Ihnen keine 2 Punkte übermittelt.","Payback","1","undefined","0","0","0","60","1080","231","0","1","1311","0","legacy","[11, 21, 31, 41, 51, 61, 71, 81, 91, 101, 111, 121, 131, 141, 151, 161, 171, 181, 191, 201, 211, 221, 231, 241, 251, 261, 271, 281, 291, 301, 311, 321, 331, 341, 351, 361, 371, 381, 391, 401, 411, 421, 431, 441, 451, 461, 471, 481, 491, 501, 511, 521, 531, 541, 551, 561, 571, 581, 591, 601, 611, 621, 631, 641, 651, 661, 671, 681, 691, 701, 711, 721, 731, 741, 751, 761, 771, 781, 791, 801, 811, 821, 831, 841, 851, 861, 871, 881, 891, 901, 911, 921, 931, 941, 951, 961, 971, 981, 991, 1001, 1011, 1021, 1031, 1041, 1051, 1061, 1071, 1081, 1091, 1101, 1111, 1121, 1131, 1141, 1151, 1161, 1171, 1181, 1191, 1201, 1211, 1221, 1231, 1241, 1251, 1261, 1271, 1281, 1291, 1301]","1140","1920","[960, 960, 960, 960, 960, 960, 960, 960, 960, 960, 960, 960, 960, 960, 960, 960, 958, 954, 950, 945, 943, 940, 936, 928, 924, 917, 905, 877, 857, 838, 823, 789, 773, 756, 740, 699, 681, 657, 633, 600, 587, 579, 571, 555, 548, 540, 532, 511, 502, 492, 483, 468, 462, 455, 448, 429, 420, 411, 401, 385, 379, 372, 367, 358, 356, 352, 348, 337, 331, 323, 318, 307, 302, 297, 293, 283, 280, 274, 271, 263, 261, 257, 253, 249, 247, 246, 244, 238, 235, 231, 226, 217, 211, 206, 201, 192, 190, 185, 182, 172, 170, 166, 165, 161, 161, 159, 158, 155, 154, 154, 152, 151, 151, 150, 150, 149, 148, 147, 145, 142, 142, 141, 141, 141, 141, 141, 141, 141, 141, 141]","[1010, 1010, 1010, 1010, 1010, 1010, 1010, 1010, 1010, 1010, 1010, 1010, 1010, 1010, 1007, 1002, 996, 988, 979, 964, 956, 945, 933, 903, 886, 866, 840, 776, 741, 708, 681, 636, 613, 588, 565, 514, 493, 469, 445, 416, 403, 392, 381, 361, 352, 341, 330, 306, 296, 285, 276, 260, 251, 242, 233, 218, 211, 204, 198, 191, 188, 183, 182, 177, 176, 174, 172, 165, 162, 158, 155, 151, 148, 147, 144, 140, 139, 137, 135, 131, 130, 128, 125, 123, 122, 121, 119, 117, 114, 113, 110, 105, 102, 99, 95, 91, 89, 86, 85, 78, 76, 73, 72, 69, 69, 68, 67, 65, 65, 65, 64, 63, 63, 63, 63, 62, 62, 60, 60, 58, 58, 58, 57, 57, 57, 57, 57, 57, 57, 57]"
"Trust","Teilnehmer A hat Ihnen 2 Punkte übermittelt.","Payback","1","undefined","1","0","0","60","1080","231","5","1","1358","0","legacy","[11, 21, 31, 41, 51, 61, 71, 81, 91, 101, 111, 121, 131, 141, 151, 161, 171, 181, 191, 201, 211, 221, 231, 241, 251, 261, 271, 281, 291, 301, 311, 321, 331, 341, 351, 361, 371, 381, 391, 401, 411, 421, 431, 441, 451, 461, 471, 481, 491, 501, 511, 521, 531, 541, 551, 561, 571, 581, 591, 601, 611, 621, 631, 641, 651, 661, 671, 681, 691, 701, 711, 721, 731, 741, 751, 761, 771, 781, 791, 801, 811, 821, 831, 841, 851, 861, 871, 881, 891, 901, 911, 921, 931, 941, 951, 961, 971, 981, 991, 1001, 1011, 1021, 1031, 1041, 1051, 1061, 1071, 1081, 1091, 1101, 1111, 1121, 1131, 1141, 1151, 1161, 1171, 1181, 1191, 1201, 1211, 1221, 1231, 1241, 1251, 1261, 1271, 1281, 1291, 1301, 1311, 1321, 1331, 1341, 1351]","1140","1920","[960, 960, 960, 960, 960, 960, 960, 960, 960, 960, 960, 960, 960, 960, 960, 959, 959, 956, 948, 944, 937, 929, 914, 906, 896, 876, 845, 826, 810, 794, 767, 757, 747, 742, 731, 726, 724, 719, 709, 702, 696, 690, 679, 673, 667, 663, 650, 643, 635, 625, 602, 588, 574, 560, 540, 530, 524, 517, 501, 495, 487, 481, 467, 463, 458, 453, 445, 441, 435, 430, 416, 408, 400, 391, 369, 357, 343, 332, 313, 303, 295, 287, 273, 266, 260, 253, 244, 239, 236, 232, 226, 222, 219, 214, 203, 199, 194, 188, 177, 173, 169, 166, 158, 152, 148, 142, 130, 126, 124, 121, 119, 119, 119, 119, 118, 118, 118, 116, 113, 111, 111, 110, 108, 106, 105, 103, 103, 102, 101, 101, 100, 100, 100, 100, 100]","[1010, 1010, 1010, 1010, 1010, 1010, 1010, 1010, 1010, 1010, 1010, 1010, 1010, 1006, 1001, 997, 992, 987, 971, 963, 951, 941, 920, 909, 897, 874, 831, 806, 783, 760, 728, 713, 703, 694, 674, 665, 658, 647, 627, 614, 602, 591, 571, 562, 554, 544, 522, 511, 498, 481, 445, 423, 404, 388, 357, 345, 336, 326, 308, 301, 293, 285, 273, 270, 266, 262, 254, 251, 245, 242, 231, 226, 220, 215, 202, 196, 188, 181, 170, 164, 159, 155, 146, 142, 138, 135, 129, 127, 125, 123, 119, 115, 114, 112, 105, 104, 101, 99, 94, 92, 90, 90, 86, 85, 83, 82, 78, 77, 77, 76, 75, 75, 75, 75, 74, 74, 73, 72, 70, 68, 68, 67, 66, 64, 63, 63, 61, 61, 61, 61, 61, 61, 61, 61, 61]"
"Trust","Teilnehmer A hat Ihnen 2 Punkte übermittelt.","Payback","1","undefined","2","0","0","60","1080","211","5","1","907","0","legacy","[11, 21, 31, 41, 51, 61, 71, 81, 91, 101, 111, 121, 131, 141, 151, 161, 171, 181, 191, 201, 211, 221, 231, 241, 251, 261, 271, 281, 291, 301, 311, 321, 331, 341, 351, 361, 371, 381, 391, 401, 411, 421, 431, 441, 451, 461, 471, 481, 491, 501, 511, 521, 531, 541, 551, 561, 571, 581, 591, 601, 611, 621, 631, 641, 651, 661, 671, 681, 691, 701, 711, 721, 731, 741, 751, 761, 771, 781, 791, 801, 811, 821, 831, 841, 851, 861, 871, 881, 891, 901]","1140","1920","[960, 960, 960, 960, 960, 960, 960, 960, 960, 960, 960, 960, 960, 960, 960, 960, 960, 956, 952, 943, 931, 911, 895, 884, 868, 835, 814, 799, 784, 759, 746, 733, 722, 695, 687, 677, 670, 655, 650, 642, 636, 623, 615, 607, 595, 573, 556, 538, 521, 484, 467, 455, 443, 422, 411, 399, 391, 374, 364, 355, 342, 323, 317, 311, 306, 296, 287, 279, 273, 259, 251, 244, 236, 218, 208, 200, 193, 183, 180, 179, 177, 177, 177, 177, 177, 177, 177, 177, 177, 177]","[1010, 1010, 1010, 1010, 1010, 1010, 1010, 1010, 1010, 1010, 1010, 1010, 1009, 1006, 1003, 1000, 996, 983, 973, 957, 938, 908, 887, 871, 855, 818, 801, 787, 773, 751, 738, 725, 712, 682, 668, 652, 638, 609, 595, 577, 560, 535, 515, 501, 480, 439, 414, 384, 356, 306, 283, 259, 240, 207, 190, 173, 159, 136, 124, 115, 104, 91, 86, 83, 81, 76, 75, 73, 71, 69, 69, 69, 69, 69, 70, 71, 72, 76, 76, 77, 79, 79, 79, 79, 79, 79, 79, 79, 79, 79]"
"Promise","Wie oft werden Sie die Hälfte zurückgeben?","Promise","1","undefined","2","0","1","60","1080","211","5","1","1000","0","legacy","[11, 21, 31, 41, 51, 61, 71, 81, 91, 101, 111, 121, 131, 141, 151, 161, 171, 181, 191, 201, 211, 221, 231, 241, 251, 261, 271, 281, 291, 301, 311, 321, 331, 341, 351, 361, 371, 381, 391, 401, 411, 421, 431, 441, 451, 461, 471, 481, 491, 501, 511, 521, 531, 541, 551, 561, 571, 581, 591, 601, 611, 621, 631, 641, 651, 661, 671, 681, 691, 701, 711, 721, 731, 741, 751, 761, 771, 781, 791, 801, 811, 821, 831, 841, 851, 861, 871, 881, 891, 901, 911, 921, 931, 941, 951, 961, 971, 981, 991]","1140","1920","[960, 960, 960, 960, 960, 960, 960, 960, 960, 960, 960, 960, 960, 960, 960, 960, 960, 960, 957, 946, 934, 922, 904, 854, 836, 810, 791, 757, 741, 724, 708, 670, 652, 637, 620, 595, 586, 577, 568, 551, 543, 536, 527, 508, 494, 478, 466, 434, 421, 412, 402, 379, 369, 359, 347, 330, 322, 313, 302, 282, 273, 264, 257, 242, 237, 230, 225, 215, 210, 207, 202, 197, 195, 193, 192, 190, 189, 187, 185, 180, 176, 173, 170, 167, 165, 165, 162, 162, 161, 161, 160, 160, 160, 160, 159, 159, 159, 159, 159]","[1010, 1010, 1010, 1010, 1010, 1010, 1010, 1010, 1010, 1010, 1010, 1010, 1010, 1007, 1002, 992, 985, 980, 974, 952, 936, 915, 887, 810, 777, 746, 720, 672, 650, 627, 604, 558, 535, 517, 497, 467, 457, 446, 436, 416, 407, 398, 387, 363, 348, 334, 322, 300, 290, 283, 278, 265, 259, 254, 249, 244, 241, 239, 235, 230, 228, 223, 221, 214, 212, 208, 204, 197, 193, 191, 187, 183, 180, 179, 177, 174, 172, 168, 165, 154, 147, 139, 136, 128, 125, 121, 118, 115, 114, 112, 111, 109, 108, 108, 108, 108, 108, 108, 108]"
"Trust","Teilnehmer A hat Ihnen 2 Punkte übermittelt.","Payback","1","undefined","3","0","1","60","1080","261","5","1","974","0","legacy","[11, 21, 31, 41, 51, 61, 71, 81, 91, 101, 111, 121, 131, 141, 151, 161, 171, 181, 191, 201, 211, 221, 231, 241, 251, 261, 271, 281, 291, 301, 311, 321, 331, 341, 351, 361, 371, 381, 391, 401, 411, 421, 431, 441, 451, 461, 471, 481, 491, 501, 511, 521, 531, 541, 551, 561, 571, 581, 591, 601, 611, 621, 631, 641, 651, 661, 671, 681, 691, 701, 711, 721, 731, 741, 751, 761, 771, 781, 791, 801, 811, 821, 831, 841, 851, 861, 871, 881, 891, 901, 911, 921, 931, 941, 951, 961, 971]","1140","1920","[960, 960, 960, 960, 960, 960, 960, 960, 960, 960, 960, 960, 960, 960, 960, 960, 960, 960, 960, 958, 956, 951, 941, 924, 905, 879, 822, 792, 766, 742, 693, 671, 652, 632, 599, 583, 563, 548, 515, 503, 490, 483, 463, 454, 446, 438, 420, 408, 400, 390, 368, 358, 347, 339, 321, 314, 309, 306, 301, 298, 298, 298, 297, 297, 295, 294, 289, 284, 279, 271, 254, 244, 235, 223, 205, 195, 187, 180, 169, 166, 163, 162, 158, 157, 156, 155, 155, 155, 155, 155, 155, 155, 155, 155, 155, 155, 155]","[1010, 1010, 1010, 1010, 1010, 1010, 1010, 1010, 1010, 1010, 1010, 1010, 1010, 1010, 1010, 1010, 1010, 1010, 1008, 1005, 1003, 999, 988, 967, 942, 908, 817, 775, 726, 685, 603, 567, 532, 497, 442, 410, 377, 350, 295, 273, 252, 238, 212, 198, 188, 176, 156, 146, 140, 130, 112, 105, 96, 90, 81, 77, 75, 74, 73, 72, 72, 72, 72, 72, 72, 72, 72, 72, 72, 72, 70, 69, 68, 64, 58, 57, 54, 53, 50, 49, 49, 48, 47, 47, 47, 47, 46, 46, 46, 46, 46, 46, 46, 46, 46, 46, 46]"
"Trust","Teilnehmer A hat Ihnen 2 Punkte übermittelt.","Payback","1","undefined","4","0","1","60","1080","311","5","1","998","0","legacy","[11, 21, 31, 41, 51, 61, 71, 81, 91, 101, 111, 121, 131, 141, 151, 161, 171, 181, 191, 201, 211, 221, 231, 241, 251, 261, 271, 281, 291, 301, 311, 321, 331, 341, 351, 361, 371, 381, 391, 401, 411, 421, 431, 441, 451, 461, 471, 481, 491, 501, 511, 521, 531, 541, 551, 561, 571, 581, 591, 601, 611, 621, 631, 641, 651, 661, 671, 681, 691, 701, 711, 721, 731, 741, 751, 761, 771, 781, 791, 801, 811, 821, 831, 841, 851, 861, 871, 881, 891, 901, 911, 921, 931, 941, 951, 961, 971, 981, 991]","1140","1920","[960, 960, 960, 960, 960, 960, 960, 960, 960, 960, 960, 960, 960, 960, 960, 960, 960, 960, 960, 960, 960, 960, 960, 959, 958, 955, 950, 944, 937, 931, 903, 887, 866, 846, 805, 781, 757, 734, 688, 663, 642, 618, 578, 564, 553, 542, 525, 517, 507, 495, 473, 464, 452, 445, 427, 419, 410, 400, 379, 370, 356, 346, 325, 314, 303, 293, 277, 271, 263, 255, 242, 239, 235, 234, 229, 225, 224, 222, 219, 218, 216, 214, 208, 207, 205, 203, 201, 200, 199, 199, 198, 198, 197, 197, 197, 197, 197, 197, 197]","[1010, 1010, 1010, 1010, 1010, 1010, 1010, 1010, 1010, 1010, 1010, 1010, 1010, 1010, 1010, 1010, 1010, 1010, 1010, 1010, 1010, 1009, 1007, 1005, 1003, 1001, 990, 983, 972, 961, 924, 902, 874, 846, 784, 751, 722, 691, 629, 600, 574, 543, 494, 478, 464, 451, 428, 416, 402, 388, 365, 354, 345, 338, 324, 317, 308, 300, 283, 274, 263, 256, 245, 239, 233, 230, 222, 221, 217, 213, 207, 205, 203, 202, 198, 195, 193, 191, 185, 182, 178, 173, 158, 153, 148, 142, 134, 131, 126, 124, 118, 115, 112, 111, 111, 111, 111, 111, 111]"
"Trust","Teilnehmer A hat Ihnen 2 Punkte übermittelt.","Payback","1","undefined","5","0","1","60","1080","231","5","1","918","0","legacy","[11, 21, 31, 41, 51, 61, 71, 81, 91, 101, 111, 121, 131, 141, 151, 161, 171, 181, 191, 201, 211, 221, 231, 241, 251, 261, 271, 281, 291, 301, 311, 321, 331, 341, 351, 361, 371, 381, 391, 401, 411, 421, 431, 441, 451, 461, 471, 481, 491, 501, 511, 521, 531, 541, 551, 561, 571, 581, 591, 601, 611, 621, 631, 641, 651, 661, 671, 681, 691, 701, 711, 721, 731, 741, 751, 761, 771, 781, 791, 801, 811, 821, 831, 841, 851, 861, 871, 881, 891, 901, 911]","1140","1920","[960, 960, 960, 960, 960, 960, 960, 960, 960, 960, 960, 960, 960, 960, 958, 957, 951, 943, 914, 893, 871, 857, 833, 819, 804, 790, 760, 743, 727, 714, 681, 671, 662, 655, 647, 643, 639, 631, 613, 602, 588, 573, 540, 523, 506, 494, 475, 468, 458, 445, 419, 405, 390, 374, 352, 338, 328, 316, 299, 291, 286, 284, 275, 272, 270, 266, 259, 254, 251, 248, 242, 241, 239, 239, 237, 237, 236, 234, 226, 221, 215, 212, 205, 204, 204, 203, 203, 203, 203, 203, 203]","[1010, 1010, 1010, 1010, 1010, 1010, 1010, 1010, 1010, 1010, 1010, 1010, 1010, 1010, 1010, 1008, 1004, 999, 980, 969, 957, 948, 930, 917, 899, 884, 846, 821, 799, 781, 734, 715, 699, 687, 665, 651, 637, 621, 577, 553, 524, 497, 449, 424, 403, 389, 364, 352, 339, 322, 285, 265, 247, 229, 206, 195, 187, 180, 166, 161, 158, 156, 150, 149, 146, 144, 138, 136, 134, 132, 130, 129, 129, 128, 128, 127, 127, 126, 121, 116, 112, 109, 105, 103, 103, 102, 102, 102, 102, 102, 102]"
"Promise","Wie oft werden Sie die Hälfte zurückgeben?","Promise","1","undefined","5","0","2","60","1080","171","5","1","720","0","legacy","[11, 21, 31, 41, 51, 61, 71, 81, 91, 101, 111, 121, 131, 141, 151, 161, 171, 181, 191, 201, 211, 221, 231, 241, 251, 261, 271, 281, 291, 301, 311, 321, 331, 341, 351, 361, 371, 381, 391, 401, 411, 421, 431, 441, 451, 461, 471, 481, 491, 501, 511, 521, 531, 541, 551, 561, 571, 581, 591, 601, 611, 621, 631, 641, 651, 661, 671, 681, 691, 701, 711]","1140","1920","[960, 960, 960, 960, 960, 960, 960, 960, 960, 960, 959, 947, 937, 930, 919, 894, 878, 859, 837, 790, 759, 729, 694, 626, 597, 572, 547, 506, 481, 454, 428, 378, 355, 331, 309, 275, 264, 257, 248, 235, 227, 222, 214, 200, 193, 187, 183, 176, 175, 173, 172, 169, 168, 167, 167, 165, 163, 162, 160, 157, 156, 154, 153, 151, 148, 147, 146, 146, 146, 146, 146]","[1010, 1010, 1010, 1010, 1010, 1010, 1010, 1010, 1010, 1010, 1010, 998, 986, 978, 968, 940, 922, 904, 877, 823, 783, 739, 694, 602, 565, 536, 507, 460, 439, 415, 390, 337, 311, 284, 260, 230, 217, 209, 200, 186, 179, 172, 162, 150, 146, 141, 139, 133, 132, 131, 129, 127, 127, 126, 126, 121, 120, 118, 114, 108, 106, 104, 101, 97, 93, 90, 89, 88, 88, 88, 88]"
"Trust","Teilnehmer A hat Ihnen 2 Punkte übermittelt.","Payback","1","undefined","6","0","2","60","1080","241","5","1","892","0","legacy","[11, 21, 31, 41, 51, 61, 71, 81, 91, 101, 111, 121, 131, 141, 151, 161, 171, 181, 191, 201, 211, 221, 231, 241, 251, 261, 271, 281, 291, 301, 311, 321, 331, 341, 351, 361, 371, 381, 391, 401, 411, 421, 431, 441, 451, 461, 471, 481, 491, 501, 511, 521, 531, 541, 551, 561, 571, 581, 591, 601, 611, 621, 631, 641, 651, 661, 671, 681, 691, 701, 711, 721, 731, 741, 751, 761, 771, 781, 791, 801, 811, 821, 831, 841, 851, 861, 871, 881, 891]","1140","1920","[960, 960, 960, 960, 960, 960, 960, 960, 960, 960, 960, 960, 960, 960, 960, 960, 960, 952, 947, 938, 923, 889, 869, 852, 834, 788, 766, 736, 706, 630, 592, 551, 510, 446, 417, 394, 373, 342, 326, 311, 297, 275, 263, 255, 247, 233, 228, 226, 223, 220, 220, 220, 219, 219, 219, 218, 217, 215, 212, 211, 208, 206, 205, 204, 203, 202, 201, 199, 196, 191, 188, 185, 183, 178, 176, 175, 175, 172, 171, 170, 170, 167, 166, 166, 165, 165, 165, 165, 165]","[1010, 1010, 1010, 1010, 1010, 1010, 1010, 1010, 1010, 1010, 1010, 1010, 1010, 1010, 1010, 1010, 1010, 1003, 999, 994, 985, 962, 949, 936, 919, 864, 834, 787, 747, 654, 606, 563, 523, 458, 435, 415, 397, 361, 341, 321, 306, 279, 264, 255, 244, 230, 228, 225, 224, 221, 221, 221, 220, 220, 220, 219, 218, 215, 209, 207, 204, 199, 197, 195, 195, 190, 187, 183, 177, 164, 156, 150, 143, 131, 128, 123, 121, 114, 110, 107, 103, 98, 94, 94, 91, 91, 91, 91, 91]"
"NoTrust","Teilnehmer A hat Ihnen keine 2 Punkte übermittelt.","Payback","1","undefined","7","0","2","60","1080","241","0","1","892","0","legacy","[11, 21, 31, 41, 51, 61, 71, 81, 91, 101, 111, 121, 131, 141, 151, 161, 171, 181, 191, 201, 211, 221, 231, 241, 251, 261, 271, 281, 291, 301, 311, 321, 331, 341, 351, 361, 371, 381, 391, 401, 411, 421, 431, 441, 451, 461, 471, 481, 491, 501, 511, 521, 531, 541, 551, 561, 571, 581, 591, 601, 611, 621, 631, 641, 651, 661, 671, 681, 691, 701, 711, 721, 731, 741, 751, 761, 771, 781, 791, 801, 811, 821, 831, 841, 851, 861, 871, 881, 891]","1140","1920","[960, 960, 960, 960, 960, 960, 960, 960, 960, 960, 960, 960, 960, 960, 960, 960, 960, 952, 947, 938, 923, 889, 869, 852, 834, 788, 766, 736, 706, 630, 592, 551, 510, 446, 417, 394, 373, 342, 326, 311, 297, 275, 263, 255, 247, 233, 228, 226, 223, 220, 220, 220, 219, 219, 219, 218, 217, 215, 212, 211, 208, 206, 205, 204, 203, 202, 201, 199, 196, 191, 188, 185, 183, 178, 176, 175, 175, 172, 171, 170, 170, 167, 166, 166, 165, 165, 165, 165, 165]","[1010, 1010, 1010, 1010, 1010, 1010, 1010, 1010, 1010, 1010, 1010, 1010, 1010, 1010, 1010, 1010, 1010, 1003, 999, 994, 985, 962, 949, 936, 919, 864, 834, 787, 747, 654, 606, 563, 523, 458, 435, 415, 397, 361, 341, 321, 306, 279, 264, 255, 244, 230, 228, 225, 224, 221, 221, 221, 220, 220, 220, 219, 218, 215, 209, 207, 204, 199, 197, 195, 195, 190, 187, 183, 177, 164, 156, 150, 143, 131, 128, 123, 121, 114, 110, 107, 103, 98, 94, 94, 91, 91, 91, 91, 91]"
"Trust","Teilnehmer A hat Ihnen 2 Punkte übermittelt.","Payback","1","undefined","8","0","2","60","1080","461","5","1","1276","0","legacy","[11, 21, 31, 41, 51, 61, 71, 81, 91, 101, 111, 121, 131, 141, 151, 161, 171, 181, 191, 201, 211, 221, 231, 241, 251, 261, 271, 281, 291, 301, 311, 321, 331, 341, 351, 361, 371, 381, 391, 401, 411, 421, 431, 441, 451, 461, 471, 481, 491, 501, 511, 521, 531, 541, 551, 561, 571, 581, 591, 601, 611, 621, 631, 641, 651, 661, 671, 681, 691, 701, 711, 721, 731, 741, 751, 761, 771, 781, 791, 801, 811, 821, 831, 841, 851, 861, 871, 881, 891, 901, 911, 921, 931, 941, 951, 961, 971, 981, 991, 1001, 1011, 1021, 1031, 1041, 1051, 1061, 1071, 1081, 1091, 1101, 1111, 1121, 1131, 1141, 1151, 1161, 1171, 1181, 1191, 1201, 1211, 1221, 1231, 1241, 1251, 1261, 1271]","1140","1920","[960, 960, 960, 960, 960, 960, 960, 960, 960, 960, 960, 960, 960, 960, 960, 960, 960, 960, 960, 960, 960, 960, 960, 960, 960, 960, 960, 960, 960, 960, 960, 958, 957, 956, 954, 954, 953, 949, 945, 943, 937, 929, 923, 918, 904, 863, 848, 825, 802, 762, 744, 729, 711, 672, 650, 627, 603, 550, 530, 506, 489, 454, 439, 422, 404, 370, 350, 338, 326, 308, 302, 293, 286, 276, 273, 271, 269, 265, 263, 262, 259, 252, 247, 243, 238, 230, 226, 222, 219, 210, 203, 200, 195, 187, 184, 179, 176, 172, 170, 167, 164, 159, 157, 153, 149, 143, 139, 137, 134, 130, 129, 128, 126, 124, 124, 123, 122, 122, 121, 120, 120, 119, 119, 119, 119, 118, 118]","[1010, 1010, 1010, 1010, 1010, 1010, 1010, 1010, 1010, 1010, 1010, 1010, 1010, 1010, 1010, 1010, 1010, 1010, 1010, 1010, 1010, 1010, 1010, 1010, 1010, 1009, 1007, 1006, 1006, 1004, 1003, 1002, 1001, 1000, 998, 997, 997, 993, 991, 989, 986, 979, 974, 968, 955, 917, 903, 885, 867, 829, 810, 792, 769, 718, 687, 651, 615, 547, 524, 495, 475, 433, 416, 395, 372, 333, 310, 297, 282, 263, 257, 249, 243, 235, 231, 228, 225, 221, 219, 217, 214, 208, 203, 200, 196, 191, 187, 186, 183, 176, 171, 169, 165, 159, 157, 154, 152, 150, 147, 145, 142, 136, 132, 127, 122, 110, 104, 99, 93, 85, 81, 76, 73, 68, 65, 64, 63, 60, 58, 57, 56, 54, 52, 52, 52, 51, 51]"
"Promise","Wie oft werden Sie die Hälfte zurückgeben?","Promise","1","undefined","8","0","3","60","1080","221","5","1","745","0","legacy","[11, 21, 31, 41, 51, 61, 71, 81, 91, 101, 111, 121, 131, 141, 151, 161, 171, 181, 191, 201, 211, 221, 231, 241, 251, 261, 271, 281, 291, 301, 311, 321, 331, 341, 351, 361, 371, 381, 391, 401, 411, 421, 431, 441, 451, 461, 471, 481, 491, 501, 511, 521, 531, 541, 551, 561, 571, 581, 591, 601, 611, 621, 631, 641, 651, 661, 671, 681, 691, 701, 711, 721, 731, 741]","1140","1920","[960, 960, 960, 960, 960, 960, 960, 960, 960, 960, 960, 960, 960, 958, 952, 947, 940, 933, 926, 918, 897, 886, 866, 847, 776, 739, 692, 594, 545, 507, 472, 418, 393, 379, 364, 352, 336, 330, 324, 313, 307, 301, 294, 288, 287, 284, 284, 281, 278, 276, 273, 264, 260, 255, 248, 227, 214, 197, 182, 147, 130, 115, 103, 85, 78, 74, 72, 68, 68, 68, 68, 68, 68, 68]","[1010, 1010, 1010, 1010, 1010, 1010, 1010, 1010, 1010, 1010, 1010, 1010, 1009, 1006, 1003, 1000, 994, 990, 984, 977, 956, 939, 916, 890, 808, 758, 706, 608, 566, 523, 479, 425, 398, 383, 369, 354, 337, 328, 322, 311, 305, 301, 295, 290, 287, 287, 286, 283, 280, 277, 275, 267, 262, 256, 247, 221, 204, 184, 166, 118, 97, 79, 60, 39, 29, 22, 19, 13, 13, 13, 13, 13, 13, 13]"
"Trust","Teilnehmer A hat Ihnen 2 Punkte übermittelt.","Payback","1","undefined","9","0","3","60","1080","501","5","1","1284","0","legacy","[11, 21, 31, 41, 51, 61, 71, 81, 91, 101, 111, 121, 131, 141, 151, 161, 171, 181, 191, 201, 211, 221, 231, 241, 251, 261, 271, 281, 291, 301, 311, 321, 331, 341, 351, 361, 371, 381, 391, 401, 411, 421, 431, 441, 451, 461, 471, 481, 491, 501, 511, 521, 531, 541, 551, 561, 571, 581, 591, 601, 611, 621, 631, 641, 651, 661, 671, 681, 691, 701, 711, 721, 731, 741, 751, 761, 771, 781, 791, 801, 811, 821, 831, 841, 851, 861, 871, 881, 891, 901, 911, 921, 931, 941, 951, 961, 971, 981, 991, 1001, 1011, 1021, 1031, 1041, 1051, 1061, 1071, 1081, 1091, 1101, 1111, 1121, 1131, 1141, 1151, 1161, 1171, 1181, 1191, 1201, 1211, 1221, 1231, 1241, 1251, 1261, 1271, 1281]","1140","1920","[960, 960, 960, 960, 960, 960, 960, 960, 960, 960, 960, 960, 960, 960, 960, 960, 960, 960, 960, 960, 960, 960, 960, 960, 960, 960, 960, 960, 960, 960, 960, 960, 960, 960, 960, 960, 960, 960, 960, 960, 959, 956, 955, 951, 947, 933, 925, 920, 913, 906, 899, 894, 889, 879, 874, 868, 864, 850, 840, 830, 820, 797, 784, 768, 751, 707, 681, 656, 633, 584, 566, 548, 526, 492, 475, 452, 436, 396, 379, 362, 341, 311, 301, 290, 282, 263, 255, 248, 239, 224, 216, 210, 203, 193, 189, 187, 184, 180, 177, 173, 171, 165, 164, 160, 156, 149, 146, 143, 139, 135, 134, 132, 132, 131, 129, 129, 128, 127, 127, 127, 127, 126, 126, 126, 126, 126, 126, 126]","[1010, 1010, 1010, 1010, 1010, 1010, 1010, 1010, 1010, 1010, 1010, 1010, 1010, 1010, 1010, 1010, 1010, 1010, 1010, 1010, 1010, 1010, 1010, 1010, 1010, 1010, 1010, 1010, 1010, 1010, 1010, 1010, 1010, 1010, 1010, 1010, 1010, 1010, 1008, 1006, 1005, 1001, 1000, 994, 987, 966, 957, 951, 943, 934, 925, 918, 913, 898, 892, 885, 877, 857, 847, 833, 818, 789, 769, 749, 729, 674, 643, 616, 588, 530, 505, 484, 460, 415, 394, 370, 348, 301, 280, 262, 243, 217, 207, 200, 191, 171, 165, 158, 149, 137, 130, 124, 119, 113, 111, 110, 108, 107, 105, 105, 104, 102, 102, 100, 98, 96, 93, 92, 91, 88, 86, 85, 85, 84, 83, 82, 82, 80, 80, 80, 79, 78, 78, 78, 78, 78, 78, 78]"
"Trust","Teilnehmer A hat Ihnen 2 Punkte übermittelt.","Payback","1","undefined","10","0","3","60","1080","231","5","1","998","0","legacy","[11, 21, 31, 41, 51, 61, 71, 81, 91, 101, 111, 121, 131, 141, 151, 161, 171, 181, 191, 201, 211, 221, 231, 241, 251, 261, 271, 281, 291, 301, 311, 321, 331, 341, 351, 361, 371, 381, 391, 401, 411, 421, 431, 441, 451, 461, 471, 481, 491, 501, 511, 521, 531, 541, 551, 561, 571, 581, 591, 601, 611, 621, 631, 641, 651, 661, 671, 681, 691, 701, 711, 721, 731, 741, 751, 761, 771, 781, 791, 801, 811, 821, 831, 841, 851, 861, 871, 881, 891, 901, 911, 921, 931, 941, 951, 961, 971, 981, 991]","1140","1920","[960, 960, 960, 960, 960, 960, 960, 960, 960, 960, 958, 957, 955, 951, 940, 934, 929, 922, 908, 900, 893, 885, 862, 852, 839, 831, 813, 807, 802, 796, 786, 780, 774, 768, 751, 740, 727, 715, 699, 690, 682, 675, 657, 649, 639, 631, 612, 600, 585, 571, 543, 531, 516, 503, 481, 470, 456, 445, 414, 401, 389, 379, 361, 356, 350, 344, 336, 332, 329, 325, 317, 310, 301, 292, 272, 265, 255, 246, 227, 216, 204, 193, 168, 158, 147, 139, 127, 124, 122, 121, 120, 120, 120, 120, 120, 120, 120, 120, 120]","[1010, 1010, 1010, 1010, 1010, 1010, 1010, 1010, 1010, 1010, 1010, 1010, 1010, 1006, 997, 991, 987, 982, 969, 961, 952, 941, 910, 898, 880, 869, 844, 834, 825, 813, 791, 776, 764, 749, 708, 684, 660, 640, 609, 593, 579, 566, 538, 527, 513, 502, 478, 463, 446, 430, 395, 380, 360, 345, 320, 310, 298, 286, 252, 239, 229, 220, 206, 200, 194, 188, 179, 175, 174, 171, 166, 162, 157, 155, 146, 143, 138, 133, 122, 116, 107, 100, 86, 78, 70, 65, 55, 53, 52, 51, 50, 50, 50, 50, 50, 50, 50, 50, 50]"
"Trust","Teilnehmer A hat Ihnen 2 Punkte übermittelt.","Payback","1","undefined","11","0","3","60","1080","201","5","1","862","0","legacy","[11, 21, 31, 41, 51, 61, 71, 81, 91, 101, 111, 121, 131, 141, 151, 161, 171, 181, 191, 201, 211, 221, 231, 241, 251, 261, 271, 281, 291, 301, 311, 321, 331, 341, 351, 361, 371, 381, 391, 401, 411, 421, 431, 441, 451, 461, 471, 481, 491, 501, 511, 521, 531, 541, 551, 561, 571, 581, 591, 601, 611, 621, 631, 641, 651, 661, 671, 681, 691, 701, 711, 721, 731, 741, 751, 761, 771, 781, 791, 801, 811, 821, 831, 841, 851, 861]","1140","1920","[960, 960, 960, 960, 960, 960, 960, 960, 960, 960, 960, 960, 959, 956, 943, 930, 915, 899, 850, 823, 796, 765, 711, 684, 663, 637, 598, 581, 564, 546, 519, 508, 498, 491, 477, 472, 466, 459, 439, 425, 411, 401, 367, 353, 333, 321, 298, 288, 276, 264, 248, 241, 234, 229, 221, 219, 216, 214, 212, 210, 210, 208, 204, 202, 199, 196, 190, 188, 184, 181, 177, 173, 172, 167, 161, 160, 156, 155, 151, 151, 151, 151, 151, 151, 151, 151]","[1010, 1010, 1010, 1010, 1010, 1010, 1010, 1010, 1010, 1010, 1010, 1010, 1009, 1006, 998, 992, 985, 975, 947, 930, 907, 879, 816, 782, 754, 722, 671, 646, 626, 603, 572, 560, 548, 539, 522, 515, 507, 496, 469, 454, 439, 427, 394, 385, 371, 362, 344, 336, 327, 319, 304, 299, 295, 292, 286, 285, 283, 281, 278, 277, 275, 272, 265, 261, 255, 247, 233, 224, 216, 207, 188, 176, 165, 153, 124, 112, 101, 92, 84, 83, 82, 82, 82, 82, 82, 82]"
"Promise","Wie oft werden Sie die Hälfte zurückgeben?","Promise","1","undefined","11","0","4","60","1080","281","5","1","976","0","legacy","[11, 21, 31, 41, 51, 61, 71, 81, 91, 101, 111, 121, 131, 141, 151, 161, 171, 181, 191, 201, 211, 221, 231, 241, 251, 261, 271, 281, 291, 301, 311, 321, 331, 341, 351, 361, 371, 381, 391, 401, 411, 421, 431, 441, 451, 461, 471, 481, 491, 501, 511, 521, 531, 541, 551, 561, 571, 581, 591, 601, 611, 621, 631, 641, 651, 661, 671, 681, 691, 701, 711, 721, 731, 741, 751, 761, 771, 781, 791, 801, 811, 821, 831, 841, 851, 861, 871, 881, 891, 901, 911, 921, 931, 941, 951, 961, 971]","1140","1920","[960, 960, 960, 960, 960, 960, 960, 960, 960, 960, 960, 960, 960, 960, 960, 960, 960, 960, 960, 955, 951, 949, 947, 941, 935, 926, 907, 856, 828, 793, 754, 677, 637, 601, 569, 519, 500, 484, 475, 452, 447, 441, 435, 428, 423, 417, 412, 398, 392, 386, 381, 372, 365, 360, 353, 341, 331, 322, 307, 280, 267, 255, 246, 234, 230, 226, 223, 220, 218, 216, 214, 213, 211, 211, 210, 209, 206, 206, 203, 198, 194, 191, 188, 181, 177, 172, 171, 165, 163, 162, 161, 161, 161, 161, 161, 161, 161]","[1010, 1010, 1010, 1010, 1010, 1010, 1010, 1010, 1010, 1010, 1010, 1010, 1010, 1010, 1010, 1010, 1010, 1010, 1010, 1010, 1008, 1006, 1004, 1000, 994, 984, 968, 916, 886, 851, 806, 722, 675, 634, 595, 539, 514, 496, 482, 457, 447, 439, 431, 414, 407, 395, 385, 366, 357, 350, 342, 331, 323, 317, 308, 292, 281, 271, 257, 235, 224, 214, 206, 193, 188, 185, 181, 176, 173, 172, 169, 167, 166, 165, 164, 162, 159, 157, 153, 146, 141, 135, 130, 114, 108, 101, 94, 83, 77, 75, 73, 72, 71, 71, 71, 71, 71]"
"Trust","Teilnehmer A hat Ihnen 2 Punkte übermittelt.","Payback","1","undefined","12","0","4","60","1080","191","5","1","766","0","legacy","[11, 21, 31, 41, 51, 61, 71, 81, 91, 101, 111, 121, 131, 141, 151, 161, 171, 181, 191, 201, 211, 221, 231, 241, 251, 261, 271, 281, 291, 301, 311, 321, 331, 341, 351, 361, 371, 381, 391, 401, 411, 421, 431, 441, 451, 461, 471, 481, 491, 501, 511, 521, 531, 541, 551, 561, 571, 581, 591, 601, 611, 621, 631, 641, 651, 661, 671, 681, 691, 701, 711, 721, 731, 741, 751, 761]","1140","1920","[960, 960, 960, 960, 960, 960, 960, 960, 960, 960, 960, 960, 960, 960, 935, 913, 883, 853, 779, 739, 706, 666, 600, 569, 540, 512, 449, 420, 392, 367, 311, 291, 268, 243, 205, 186, 175, 167, 149, 144, 137, 132, 125, 122, 121, 121, 119, 118, 117, 117, 115, 114, 114, 114, 113, 113, 113, 113, 113, 113, 113, 114, 115, 116, 117, 119, 120, 121, 121, 122, 122, 122, 122, 122, 122, 122]","[1010, 1010, 1010, 1010, 1010, 1010, 1010, 1010, 1010, 1010, 1010, 1010, 1010, 1009, 993, 980, 963, 945, 887, 849, 811, 775, 710, 673, 636, 602, 526, 489, 459, 430, 380, 363, 345, 328, 300, 286, 279, 273, 258, 254, 248, 243, 234, 232, 231, 229, 226, 223, 221, 219, 211, 208, 204, 199, 194, 192, 191, 188, 180, 175, 169, 161, 144, 137, 130, 124, 114, 110, 106, 102, 100, 99, 99, 99, 99, 99]"
"Trust","Teilnehmer A hat Ihnen 2 Punkte übermittelt.","Payback","1","undefined","13","0","4","60","1080","191","5","1","886","0","legacy","[11, 21, 31, 41, 51, 61, 71, 81, 91, 101, 111, 121, 131, 141, 151, 161, 171, 181, 191, 201, 211, 221, 231, 241, 251, 261, 271, 281, 291, 301, 311, 321, 331, 341, 351, 361, 371, 381, 391, 401, 411, 421, 431, 441, 451, 461, 471, 481, 491, 501, 511, 521, 531, 541, 551, 561, 571, 581, 591, 601, 611, 621, 631, 641, 651, 661, 671, 681, 691, 701, 711, 721, 731, 741, 751, 761, 771, 781, 791, 801, 811, 821, 831, 841, 851, 861, 871, 881]","1140","1920","[960, 960, 960, 960, 960, 960, 960, 960, 960, 960, 960, 960, 960, 960, 947, 931, 911, 885, 829, 801, 769, 743, 698, 678, 659, 636, 579, 553, 526, 507, 469, 457, 443, 431, 407, 392, 381, 363, 327, 315, 304, 292, 277, 271, 266, 262, 254, 250, 248, 243, 240, 239, 239, 239, 239, 238, 236, 234, 228, 224, 219, 215, 204, 200, 196, 192, 188, 188, 187, 186, 184, 182, 182, 181, 181, 180, 180, 179, 177, 176, 176, 176, 175, 175, 175, 175, 175, 175]","[1010, 1010, 1010, 1010, 1010, 1010, 1010, 1010, 1010, 1010, 1010, 1010, 1009, 1005, 992, 979, 965, 947, 906, 885, 859, 834, 793, 770, 742, 706, 625, 591, 554, 529, 483, 468, 452, 440, 414, 402, 389, 374, 345, 335, 327, 320, 307, 301, 297, 291, 281, 276, 274, 269, 265, 264, 263, 262, 260, 257, 255, 251, 236, 226, 216, 206, 185, 176, 169, 162, 154, 151, 148, 146, 141, 139, 137, 134, 130, 129, 128, 127, 123, 122, 119, 118, 117, 116, 116, 116, 116, 116]"
"Trust","Teilnehmer A hat Ihnen 2 Punkte übermittelt.","Payback","1","undefined","14","0","4","60","1080","241","5","1","982","0","legacy","[11, 21, 31, 41, 51, 61, 71, 81, 91, 101, 111, 121, 131, 141, 151, 161, 171, 181, 191, 201, 211, 221, 231, 241, 251, 261, 271, 281, 291, 301, 311, 321, 331, 341, 351, 361, 371, 381, 391, 401, 411, 421, 431, 441, 451, 461, 471, 481, 491, 501, 511, 521, 531, 541, 551, 561, 571, 581, 591, 601, 611, 621, 631, 641, 651, 661, 671, 681, 691, 701, 711, 721, 731, 741, 751, 761, 771, 781, 791, 801, 811, 821, 831, 841, 851, 861, 871, 881, 891, 901, 911, 921, 931, 941, 951, 961, 971, 981]","1140","1920","[960, 960, 960, 960, 960, 960, 960, 960, 960, 960, 960, 960, 960, 960, 960, 960, 960, 960, 960, 954, 945, 934, 884, 853, 811, 767, 700, 672, 643, 622, 585, 572, 559, 547, 520, 507, 494, 485, 465, 457, 450, 442, 429, 422, 414, 403, 377, 365, 356, 347, 336, 330, 327, 324, 318, 314, 309, 303, 287, 277, 264, 253, 234, 225, 220, 214, 205, 201, 197, 194, 187, 185, 182, 180, 178, 175, 173, 171, 169, 168, 166, 164, 159, 155, 151, 145, 139, 138, 135, 133, 131, 128, 128, 128, 127, 127, 127, 127]","[1010, 1010, 1010, 1010, 1010, 1010, 1010, 1010, 1010, 1010, 1010, 1010, 1010, 1010, 1010, 1010, 1010, 1010, 1010, 1006, 1000, 993, 959, 936, 904, 871, 814, 789, 766, 746, 705, 688, 668, 649, 612, 594, 575, 561, 537, 525, 514, 503, 484, 474, 463, 451, 414, 401, 389, 381, 369, 363, 361, 358, 350, 345, 339, 330, 308, 296, 277, 262, 234, 221, 212, 203, 188, 183, 178, 172, 165, 162, 158, 155, 152, 151, 149, 147, 144, 143, 140, 138, 131, 126, 120, 114, 103, 98, 95, 91, 85, 82, 81, 80, 79, 79, 79, 79]"
"Promise","Wie oft werden Sie die Hälfte zurückgeben?","Promise","1","undefined","14","0","5","60","1080","221","5","1","841","0","legacy","[11, 21, 31, 41, 51, 61, 71, 81, 91, 101, 111, 121, 131, 141, 151, 161, 171, 181, 191, 201, 211, 221, 231, 241, 251, 261, 271, 281, 291, 301, 311, 321, 331, 341, 351, 361, 371, 381, 391, 401, 411, 421, 431, 441, 451, 461, 471, 481, 491, 501, 511, 521, 531, 541, 551, 561, 571, 581, 591, 601, 611, 621, 631, 641, 651, 661, 671, 681, 691, 701, 711, 721, 731, 741, 751, 761, 771, 781, 791, 801, 811, 821, 831, 841]","1140","1920","[960, 960, 960, 960, 960, 960, 960, 960, 960, 960, 960, 960, 960, 960, 960, 960, 955, 949, 936, 920, 862, 819, 788, 764, 709, 687, 666, 652, 624, 609, 592, 568, 518, 493, 472, 460, 430, 417, 402, 390, 362, 344, 327, 306, 262, 242, 228, 218, 201, 197, 190, 187, 178, 174, 169, 165, 157, 152, 147, 144, 135, 130, 126, 121, 116, 114, 110, 109, 104, 100, 99, 97, 92, 90, 90, 89, 89, 89, 89, 89, 89, 89, 89, 89]","[1010, 1010, 1010, 1010, 1010, 1010, 1010, 1010, 1010, 1010, 1010, 1010, 1010, 1010, 1010, 1010, 1010, 1008, 999, 990, 955, 933, 911, 898, 866, 850, 832, 817, 779, 757, 727, 696, 633, 602, 579, 564, 530, 517, 505, 495, 471, 457, 442, 424, 387, 372, 363, 355, 343, 340, 335, 331, 321, 315, 309, 303, 286, 279, 269, 259, 238, 228, 218, 208, 192, 186, 179, 173, 158, 149, 142, 133, 113, 107, 101, 96, 92, 92, 91, 91, 91, 91, 91, 91]"
"NoTrust","Teilnehmer A hat Ihnen keine 2 Punkte übermittelt.","Payback","1","undefined","15","0","5","60","1080","221","0","1","841","0","legacy","[11, 21, 31, 41, 51, 61, 71, 81, 91, 101, 111, 121, 131, 141, 151, 161, 171, 181, 191, 201, 211, 221, 231, 241, 251, 261, 271, 281, 291, 301, 311, 321, 331, 341, 351, 361, 371, 381, 391, 401, 411, 421, 431, 441, 451, 461, 471, 481, 491, 501, 511, 521, 531, 541, 551, 561, 571, 581, 591, 601, 611, 621, 631, 641, 651, 661, 671, 681, 691, 701, 711, 721, 731, 741, 751, 761, 771, 781, 791, 801, 811, 821, 831, 841]","1140","1920","[960, 960, 960, 960, 960, 960, 960, 960, 960, 960, 960, 960, 960, 960, 960, 960, 955, 949, 936, 920, 862, 819, 788, 764, 709, 687, 666, 652, 624, 609, 592, 568, 518, 493, 472, 460, 430, 417, 402, 390, 362, 344, 327, 306, 262, 242, 228, 218, 201, 197, 190, 187, 178, 174, 169, 165, 157, 152, 147, 144, 135, 130, 126, 121, 116, 114, 110, 109, 104, 100, 99, 97, 92, 90, 90, 89, 89, 89, 89, 89, 89, 89, 89, 89]","[1010, 1010, 1010, 1010, 1010, 1010, 1010, 1010, 1010, 1010, 1010, 1010, 1010, 1010, 1010, 1010, 1010, 1008, 999, 990, 955, 933, 911, 898, 866, 850, 832, 817, 779, 757, 727, 696, 633, 602, 579, 564, 530, 517, 505, 495, 471, 457, 442, 424, 387, 372, 363, 355, 343, 340, 335, 331, 321, 315, 309, 303, 286, 279, 269, 259, 238, 228, 218, 208, 192, 186, 179, 173, 158, 149, 142, 133, 113, 107, 101, 96, 92, 92, 91, 91, 91, 91, 91, 91]"
"Trust","Teilnehmer A hat Ihnen 2 Punkte übermittelt.","Payback","1","undefined","16","0","5","60","1080","191","5","1","693","0","legacy","[11, 21, 31, 41, 51, 61, 71, 81, 91, 101, 111, 121, 131, 141, 151, 161, 171, 181, 191, 201, 211, 221, 231, 241, 251, 261, 271, 281, 291, 301, 311, 321, 331, 341, 351, 361, 371, 381, 391, 401, 411, 421, 431, 441, 451, 461, 471, 481, 491, 501, 511, 521, 531, 541, 551, 561, 571, 581, 591, 601, 611, 621, 631, 641, 651, 661, 671, 681, 691]","1140","1920","[960, 960, 960, 960, 960, 960, 960, 960, 960, 960, 960, 959, 957, 956, 938, 921, 898, 868, 817, 794, 767, 742, 693, 665, 631, 602, 541, 511, 476, 448, 392, 365, 341, 318, 286, 272, 263, 256, 243, 238, 231, 229, 223, 221, 220, 216, 209, 204, 198, 190, 180, 178, 174, 173, 169, 165, 163, 158, 151, 147, 141, 139, 131, 130, 129, 128, 127, 127, 127]","[1010, 1010, 1010, 1010, 1010, 1010, 1010, 1010, 1010, 1010, 1010, 1010, 1010, 1010, 997, 987, 972, 951, 913, 895, 870, 841, 784, 750, 712, 675, 599, 565, 529, 500, 444, 417, 395, 375, 345, 330, 322, 314, 300, 295, 286, 284, 277, 274, 273, 268, 259, 251, 242, 233, 217, 211, 204, 200, 189, 181, 175, 165, 142, 127, 108, 94, 73, 67, 65, 62, 61, 61, 61]"
"Trust","Teilnehmer A hat Ihnen 2 Punkte übermittelt.","Payback","1","undefined","17","0","5","60","1080","221","5","1","748","0","legacy","[11, 21, 31, 41, 51, 61, 71, 81, 91, 101, 111, 121, 131, 141, 151, 161, 171, 181, 191, 201, 211, 221, 231, 241, 251, 261, 271, 281, 291, 301, 311, 321, 331, 341, 351, 361, 371, 381, 391, 401, 411, 421, 431, 441, 451, 461, 471, 481, 491, 501, 511, 521, 531, 541, 551, 561, 571, 581, 591, 601, 611, 621, 631, 641, 651, 661, 671, 681, 691, 701, 711, 721, 731, 741]","1140","1920","[960, 960, 960, 960, 960, 960, 960, 960, 960, 960, 960, 960, 960, 960, 960, 958, 955, 942, 933, 922, 908, 856, 822, 793, 764, 708, 683, 661, 630, 576, 553, 527, 510, 476, 461, 449, 435, 418, 412, 406, 398, 386, 381, 377, 372, 363, 362, 359, 357, 350, 345, 341, 333, 314, 305, 293, 283, 260, 251, 243, 234, 220, 215, 211, 207, 200, 200, 197, 197, 196, 195, 195, 195, 194]","[1010, 1010, 1010, 1010, 1010, 1010, 1010, 1010, 1010, 1010, 1010, 1010, 1010, 1010, 1010, 1010, 1006, 990, 979, 970, 957, 914, 888, 860, 837, 782, 744, 710, 666, 588, 550, 518, 491, 438, 416, 394, 375, 349, 339, 331, 321, 306, 301, 298, 293, 288, 285, 283, 281, 276, 273, 271, 266, 251, 245, 235, 225, 203, 193, 185, 176, 160, 154, 146, 141, 134, 133, 130, 130, 127, 127, 126, 125, 124]"
"Promise","Wie oft werden Sie die Hälfte zurückgeben?","Promise","1","undefined","17","0","6","60","1080","221","5","1","744","0","legacy","[11, 21, 31, 41, 51, 61, 71, 81, 91, 101, 111, 121, 131, 141, 151, 161, 171, 181, 191, 201, 211, 221, 231, 241, 251, 261, 271, 281, 291, 301, 311, 321, 331, 341, 351, 361, 371, 381, 391, 401, 411, 421, 431, 441, 451, 461, 471, 481, 491, 501, 511, 521, 531, 541, 551, 561, 571, 581, 591, 601, 611, 621, 631, 641, 651, 661, 671, 681, 691, 701, 711, 721, 731, 741]","1140","1920","[960, 960, 960, 960, 960, 960, 960, 960, 960, 960, 960, 960, 960, 960, 960, 960, 960, 957, 953, 923, 895, 856, 806, 725, 682, 636, 601, 518, 478, 434, 394, 326, 292, 262, 231, 190, 178, 171, 162, 154, 150, 145, 140, 133, 132, 130, 130, 130, 129, 129, 129, 129, 128, 128, 128, 127, 127, 127, 127, 127, 127, 127, 127, 127, 127, 127, 126, 125, 124, 124, 122, 122, 122, 122]","[1010, 1010, 1010, 1010, 1010, 1010, 1010, 1010, 1010, 1010, 1010, 1010, 1010, 1010, 1010, 1010, 1010, 1010, 1006, 983, 962, 936, 901, 842, 803, 759, 709, 603, 557, 509, 456, 363, 324, 291, 257, 219, 204, 197, 188, 175, 170, 165, 160, 152, 150, 147, 147, 147, 147, 147, 147, 146, 145, 145, 145, 144, 144, 144, 144, 144, 144, 144, 144, 142, 139, 135, 129, 119, 114, 111, 108, 107, 106, 106]"
"Trust","Teilnehmer A hat Ihnen 2 Punkte übermittelt.","Payback","1","undefined","18","0","6","60","1080","191","5","1","789","0","legacy","[11, 21, 31, 41, 51, 61, 71, 81, 91, 101, 111, 121, 131, 141, 151, 161, 171, 181, 191, 201, 211, 221, 231, 241, 251, 261, 271, 281, 291, 301, 311, 321, 331, 341, 351, 361, 371, 381, 391, 401, 411, 421, 431, 441, 451, 461, 471, 481, 491, 501, 511, 521, 531, 541, 551, 561, 571, 581, 591, 601, 611, 621, 631, 641, 651, 661, 671, 681, 691, 701, 711, 721, 731, 741, 751, 761, 771, 781]","1140","1920","[960, 960, 960, 960, 960, 960, 960, 960, 960, 960, 960, 960, 960, 960, 954, 945, 928, 904, 830, 795, 770, 735, 668, 631, 604, 579, 531, 508, 483, 466, 439, 433, 429, 425, 421, 420, 418, 415, 410, 405, 401, 396, 386, 382, 380, 377, 367, 360, 354, 346, 323, 312, 297, 287, 269, 261, 256, 251, 239, 234, 228, 222, 208, 202, 196, 190, 176, 170, 165, 161, 155, 153, 152, 152, 151, 151, 150, 150]","[1010, 1010, 1010, 1010, 1010, 1010, 1010, 1010, 1010, 1010, 1010, 1010, 1010, 1010, 1005, 994, 976, 952, 889, 861, 840, 809, 732, 690, 651, 614, 540, 509, 482, 464, 439, 432, 428, 423, 417, 413, 409, 405, 397, 391, 388, 384, 375, 370, 368, 364, 354, 346, 338, 326, 295, 280, 262, 248, 228, 218, 210, 205, 192, 185, 177, 171, 158, 150, 142, 131, 107, 95, 85, 79, 70, 68, 67, 67, 65, 65, 63, 63]"
"Trust","Teilnehmer A hat Ihnen 2 Punkte übermittelt.","Payback","1","undefined","19","0","6","60","1080","251","5","1","1014","0","legacy","[11, 21, 31, 41, 51, 61, 71, 81, 91, 101, 111, 121, 131, 141, 151, 161, 171, 181, 191, 201, 211, 221, 231, 241, 251, 261, 271, 281, 291, 301, 311, 321, 331, 341, 351, 361, 371, 381, 391, 401, 411, 421, 431, 441, 451, 461, 471, 481, 491, 501, 511, 521, 531, 541, 551, 561, 571, 581, 591, 601, 611, 621, 631, 641, 651, 661, 671, 681, 691, 701, 711, 721, 731, 741, 751, 761, 771, 781, 791, 801, 811, 821, 831, 841, 851, 861, 871, 881, 891, 901, 911, 921, 931, 941, 951, 961, 971, 981, 991, 1001, 1011]","1140","1920","[960, 960, 960, 960, 960, 960, 960, 960, 960, 960, 960, 960, 960, 960, 960, 960, 960, 960, 958, 953, 947, 938, 911, 895, 875, 857, 821, 803, 787, 770, 738, 722, 709, 695, 663, 649, 628, 610, 573, 560, 544, 528, 502, 488, 479, 470, 446, 436, 420, 410, 389, 382, 373, 366, 352, 349, 344, 339, 329, 324, 318, 313, 299, 294, 287, 282, 277, 275, 271, 266, 257, 250, 245, 239, 228, 223, 219, 215, 211, 210, 209, 208, 207, 206, 204, 204, 200, 196, 191, 186, 179, 176, 172, 169, 165, 162, 162, 162, 162, 162, 162]","[1010, 1010, 1010, 1010, 1010, 1010, 1010, 1010, 1010, 1010, 1010, 1010, 1010, 1010, 1010, 1010, 1010, 1009, 1005, 999, 991, 983, 961, 945, 930, 913, 876, 851, 828, 803, 760, 735, 718, 698, 649, 627, 598, 575, 527, 510, 490, 471, 439, 424, 415, 404, 384, 374, 364, 355, 340, 334, 323, 317, 303, 298, 293, 287, 277, 272, 266, 261, 252, 248, 245, 242, 237, 235, 231, 226, 215, 207, 201, 193, 182, 176, 171, 166, 162, 160, 159, 158, 157, 155, 153, 152, 146, 142, 135, 130, 118, 114, 110, 106, 100, 96, 96, 96, 96, 96, 96]"
"Trust","Teilnehmer A hat Ihnen 2 Punkte übermittelt.","Payback","1","undefined","20","0","6","60","1080","1041","5","1","1686","0","legacy","[11, 21, 31, 41, 51, 61, 71, 81, 91, 101, 111, 121, 131, 141, 151, 161, 171, 181, 191, 201, 211, 221, 231, 241, 251, 261, 271, 281, 291, 301, 311, 321, 331, 341, 351, 361, 371, 381, 391, 401, 411, 421, 431, 441, 451, 461, 471, 481, 491, 501, 511, 521, 531, 541, 551, 561, 571, 581, 591, 601, 611, 621, 631, 641, 651, 661, 671, 681, 691, 701, 711, 721, 731, 741, 751, 761, 771, 781, 791, 801, 811, 821, 831, 841, 851, 861, 871, 881, 891, 901, 911, 921, 931, 941, 951, 961, 971, 981, 991, 1001, 1011, 1021, 1031, 1041, 1051, 1061, 1071, 1081, 1091, 1101, 1111, 1121, 1131, 1141, 1151, 1161, 1171, 1181, 1191, 1201, 1211, 1221, 1231, 1241, 1251, 1261, 1271, 1281, 1291, 1301, 1311, 1321, 1331, 1341, 1351, 1361, 1371, 1381, 1391, 1401, 1411, 1421, 1431, 1441, 1451, 1461, 1471, 1481, 1491, 1501, 1511, 1521, 1531, 1541, 1551, 1561, 1571, 1581, 1591, 1601, 1611, 1621, 1631, 1641, 1651, 1661, 1671, 1681]","1140","1920","[960, 960, 960, 960, 960, 960, 960, 960, 960, 960, 960, 960, 960, 960, 960, 960, 960, 960, 960, 960, 960, 960, 960, 960, 960, 960, 960, 960, 960, 960, 960, 960, 960, 960, 960, 960, 960, 960, 960, 960, 960, 958, 955, 952, 951, 948, 944, 943, 942, 942, 941, 941, 941, 941, 941, 941, 941, 941, 941, 941, 941, 941, 941, 941, 941, 941, 941, 941, 941, 941, 941, 941, 941, 941, 941, 941, 941, 941, 941, 941, 941, 941, 941, 941, 941, 941, 941, 941, 941, 941, 941, 941, 941, 941, 940, 938, 937, 933, 924, 919, 912, 905, 890, 882, 874, 864, 850, 841, 832, 825, 809, 801, 793, 782, 766, 758, 748, 738, 711, 702, 685, 666, 629, 611, 590, 568, 533, 518, 501, 485, 458, 442, 423, 409, 378, 363, 345, 333, 311, 300, 290, 281, 267, 260, 252, 245, 232, 226, 221, 216, 205, 201, 196, 194, 190, 188, 187, 187, 187, 187, 187, 186, 186, 186, 186, 186, 186, 186]","[1010, 1010, 1010, 1010, 1010, 1010, 1010, 1010, 1010, 1010, 1010, 1010, 1010, 1010, 1010, 1010, 1010, 1010, 1010, 1010, 1010, 1010, 1010, 1010, 1010, 1010, 1010, 1010, 1010, 1010, 1010, 1010, 1010, 1010, 1010, 1010, 1010, 1010, 1010, 1010, 1010, 1010, 1006, 1002, 1000, 999, 996, 995, 994, 994, 993, 993, 993, 993, 993, 993, 993, 993, 993, 993, 993, 993, 993, 993, 993, 993, 993, 993, 993, 993, 993, 993, 993, 993, 993, 993, 993, 993, 993, 993, 993, 993, 993, 993, 993, 993, 993, 993, 993, 993, 993, 993, 993, 993, 992, 991, 988, 985, 977, 973, 967, 960, 944, 933, 923, 911, 890, 878, 868, 856, 835, 823, 812, 799, 775, 765, 753, 739, 702, 686, 663, 635, 584, 561, 533, 509, 468, 450, 432, 414, 381, 365, 347, 331, 301, 287, 273, 260, 241, 230, 222, 213, 196, 189, 180, 175, 163, 158, 155, 149, 142, 138, 134, 133, 129, 127, 127, 127, 127, 127, 127, 126, 126, 126, 126, 126, 126, 126]"
"Promise","Wie oft werden Sie die Hälfte zurückgeben?","Promise","1","undefined","20","0","7","60","1080","251","5","1","736","0","legacy","[11, 21, 31, 41, 51, 61, 71, 81, 91, 101, 111, 121, 131, 141, 151, 161, 171, 181, 191, 201, 211, 221, 231, 241, 251, 261, 271, 281, 291, 301, 311, 321, 331, 341, 351, 361, 371, 381, 391, 401, 411, 421, 431, 441, 451, 461, 471, 481, 491, 501, 511, 521, 531, 541, 551, 561, 571, 581, 591, 601, 611, 621, 631, 641, 651, 661, 671, 681, 691, 701, 711, 721, 731]","1140","1920","[960, 960, 960, 960, 960, 960, 960, 960, 960, 960, 960, 960, 960, 960, 960, 960, 960, 959, 958, 948, 942, 931, 918, 886, 852, 821, 785, 717, 683, 655, 628, 584, 565, 545, 521, 478, 454, 430, 407, 358, 338, 318, 305, 284, 277, 272, 262, 244, 236, 226, 220, 209, 204, 202, 198, 194, 192, 189, 188, 183, 178, 174, 171, 166, 163, 161, 159, 155, 153, 152, 151, 151, 151]","[1010, 1010, 1010, 1010, 1010, 1010, 1010, 1010, 1010, 1010, 1010, 1010, 1010, 1010, 1010, 1010, 1010, 1010, 1010, 1002, 997, 989, 981, 955, 933, 909, 880, 830, 803, 782, 757, 700, 675, 642, 608, 552, 518, 487, 458, 398, 375, 354, 336, 318, 308, 299, 285, 261, 250, 236, 225, 206, 196, 191, 185, 176, 168, 162, 155, 137, 129, 121, 112, 100, 94, 90, 86, 78, 76, 73, 72, 72, 72]"
"Trust","Teilnehmer A hat Ihnen 2 Punkte übermittelt.","Payback","1","undefined","21","0","7","60","1080","271","5","1","846","0","legacy","[11, 21, 31, 41, 51, 61, 71, 81, 91, 101, 111, 121, 131, 141, 151, 161, 171, 181, 191, 201, 211, 221, 231, 241, 251, 261, 271, 281, 291, 301, 311, 321, 331, 341, 351, 361, 371, 381, 391, 401, 411, 421, 431, 441, 451, 461, 471, 481, 491, 501, 511, 521, 531, 541, 551, 561, 571, 581, 591, 601, 611, 621, 631, 641, 651, 661, 671, 681, 691, 701, 711, 721, 731, 741, 751, 761, 771, 781, 791, 801, 811, 821, 831, 841]","1140","1920","[960, 960, 960, 960, 960, 960, 960, 960, 960, 960, 960, 960, 960, 960, 960, 960, 960, 960, 960, 958, 957, 951, 937, 928, 914, 904, 874, 858, 840, 828, 794, 768, 740, 715, 663, 633, 608, 572, 518, 498, 474, 457, 425, 417, 409, 399, 382, 376, 368, 362, 346, 341, 330, 320, 299, 289, 282, 273, 258, 251, 245, 238, 227, 222, 219, 217, 213, 212, 212, 212, 211, 211, 210, 208, 202, 194, 188, 182, 172, 168, 167, 167, 166, 166]","[1010, 1010, 1010, 1010, 1010, 1010, 1010, 1010, 1010, 1010, 1010, 1010, 1010, 1010, 1010, 1010, 1010, 1010, 1008, 1007, 1006, 1003, 992, 985, 974, 966, 938, 924, 901, 882, 827, 781, 739, 698, 623, 581, 542, 507, 439, 415, 387, 366, 330, 316, 305, 291, 271, 261, 254, 247, 231, 222, 211, 203, 185, 176, 169, 164, 153, 148, 144, 140, 134, 131, 129, 128, 127, 126, 126, 126, 125, 125, 125, 125, 121, 118, 116, 113, 110, 110, 109, 109, 109, 109]"
"Trust","Teilnehmer A hat Ihnen 2 Punkte übermittelt.","Payback","1","undefined","22","0","7","60","1080","211","5","1","845","0","legacy","[11, 21, 31, 41, 51, 61, 71, 81, 91, 101, 111, 121, 131, 141, 151, 161, 171, 181, 191, 201, 211, 221, 231, 241, 251, 261, 271, 281, 291, 301, 311, 321, 331, 341, 351, 361, 371, 381, 391, 401, 411, 421, 431, 441, 451, 461, 471, 481, 491, 501, 511, 521, 531, 541, 551, 561, 571, 581, 591, 601, 611, 621, 631, 641, 651, 661, 671, 681, 691, 701, 711, 721, 731, 741, 751, 761, 771, 781, 791, 801, 811, 821, 831, 841]","1140","1920","[960, 960, 960, 960, 960, 960, 960, 960, 960, 960, 960, 960, 960, 960, 952, 943, 937, 929, 909, 895, 877, 862, 811, 784, 758, 736, 699, 686, 672, 655, 635, 625, 615, 608, 588, 577, 565, 549, 514, 496, 484, 472, 451, 444, 436, 426, 407, 399, 384, 369, 334, 315, 299, 287, 264, 256, 245, 234, 217, 208, 200, 194, 182, 178, 177, 174, 171, 171, 170, 170, 166, 164, 163, 162, 159, 159, 157, 157, 157, 157, 157, 157, 157, 157]","[1010, 1010, 1010, 1010, 1010, 1010, 1010, 1010, 1010, 1010, 1010, 1010, 1010, 1010, 997, 988, 983, 974, 956, 945, 928, 908, 850, 821, 792, 765, 724, 707, 691, 673, 652, 640, 629, 619, 595, 583, 568, 552, 517, 503, 493, 483, 467, 461, 454, 445, 429, 419, 405, 385, 337, 311, 286, 269, 238, 227, 215, 203, 185, 176, 167, 159, 149, 145, 144, 141, 139, 138, 137, 136, 132, 130, 128, 128, 125, 124, 123, 123, 123, 123, 123, 123, 123, 123]"
"Trust","Teilnehmer A hat Ihnen 2 Punkte übermittelt.","Payback","1","undefined","23","0","7","60","1080","301","5","1","806","0","legacy","[11, 21, 31, 41, 51, 61, 71, 81, 91, 101, 111, 121, 131, 141, 151, 161, 171, 181, 191, 201, 211, 221, 231, 241, 251, 261, 271, 281, 291, 301, 311, 321, 331, 341, 351, 361, 371, 381, 391, 401, 411, 421, 431, 441, 451, 461, 471, 481, 491, 501, 511, 521, 531, 541, 551, 561, 571, 581, 591, 601, 611, 621, 631, 641, 651, 661, 671, 681, 691, 701, 711, 721, 731, 741, 751, 761, 771, 781, 791, 801]","1140","1920","[960, 960, 960, 960, 960, 960, 960, 960, 960, 960, 960, 960, 960, 960, 960, 960, 960, 960, 960, 960, 960, 958, 955, 949, 941, 933, 907, 885, 861, 833, 782, 762, 738, 708, 646, 618, 593, 569, 521, 495, 473, 456, 420, 409, 389, 376, 351, 335, 322, 312, 286, 273, 265, 256, 238, 231, 226, 218, 204, 198, 192, 187, 172, 166, 160, 154, 143, 137, 131, 126, 119, 117, 115, 115, 115, 114, 114, 114, 114, 114]","[1010, 1010, 1010, 1010, 1010, 1010, 1010, 1010, 1010, 1010, 1010, 1010, 1010, 1010, 1010, 1010, 1010, 1010, 1010, 1010, 1010, 1010, 1007, 1004, 1000, 994, 981, 969, 954, 937, 901, 884, 850, 809, 737, 698, 669, 638, 583, 558, 537, 516, 472, 453, 432, 413, 376, 356, 339, 320, 285, 272, 261, 252, 233, 225, 216, 205, 186, 176, 169, 159, 143, 137, 130, 123, 109, 104, 96, 91, 82, 80, 79, 78, 78, 77, 77, 77, 77, 77]"
CHF,TotCHF,final_payoff,sum
"10","30","[5, 5, 5, 5]","20"
