Condition,PromiseStage,Stage,accuracy,avg_rt,count_decision_sequence,count_loop1,count_trial_sequence,font_size,height,init_time,payoff,response,rt,subject_nr,synth_backend,tTrajectory,time_experiment,width,xTrajectory,yTrajectory
"Promise","Wie oft werden Sie die Hälfte zurückgeben?","Promise","1","undefined","NA","0","0","60","1080","211","NA","1","1807","8","legacy","[11, 21, 31, 41, 51, 61, 71, 81, 91, 101, 111, 121, 131, 141, 151, 161, 171, 181, 191, 201, 211, 221, 231, 241, 251, 261, 271, 281, 291, 301, 311, 321, 331, 341, 351, 361, 371, 381, 391, 401, 411, 421, 431, 441, 451, 461, 471, 481, 491, 501, 511, 521, 531, 541, 551, 561, 571, 581, 591, 601, 611, 621, 631, 641, 651, 661, 671, 681, 691, 701, 711, 721, 731, 741, 751, 761, 771, 781, 791, 801, 811, 821, 831, 841, 851, 861, 871, 881, 891, 901, 911, 921, 931, 941, 951, 961, 971, 981, 991, 1001, 1011, 1021, 1031, 1041, 1051, 1061, 1071, 1081, 1091, 1101, 1111, 1121, 1131, 1141, 1151, 1161, 1171, 1181, 1191, 1201, 1211, 1221, 1231, 1241, 1251, 1261, 1271, 1281, 1291, 1301, 1311, 1321, 1331, 1341, 1351, 1361, 1371, 1381, 1391, 1401, 1411, 1421, 1431, 1441, 1451, 1461, 1471, 1481, 1491, 1501, 1511, 1521, 1531, 1541, 1551, 1561, 1571, 1581, 1591, 1601, 1611, 1621, 1631, 1641, 1651, 1661, 1671, 1681, 1691, 1701, 1711, 1721, 1731, 1741, 1751, 1761, 1771, 1781, 1791, 1801]","1312","1920","[960, 960, 960, 960, 960, 960, 960, 960, 960, 960, 957, 954, 950, 944, 928, 919, 912, 903, 890, 886, 880, 875, 862, 854, 847, 842, 830, 823, 815, 810, 795, 787, 777, 769, 758, 753, 750, 745, 735, 732, 727, 721, 698, 681, 665, 641, 598, 574, 555, 535, 505, 490, 481, 470, 456, 453, 448, 446, 441, 437, 435, 430, 419, 416, 413, 406, 393, 387, 379, 373, 359, 353, 347, 342, 334, 331, 330, 326, 324, 324, 324, 324, 324, 324, 324, 324, 323, 322, 320, 319, 316, 314, 314, 313, 311, 310, 310, 306, 298, 294, 290, 284, 280, 269, 265, 261, 258, 250, 247, 245, 242, 237, 233, 230, 226, 219, 217, 215, 214, 209, 207, 204, 204, 203, 203, 203, 203, 203, 203, 203, 203, 203, 203, 202, 201, 201, 200, 200, 198, 196, 194, 194, 193, 187, 187, 186, 184, 182, 181, 179, 179, 176, 176, 176, 176, 176, 176, 176, 176, 176, 176, 176, 176, 176, 176, 176, 176, 176, 176, 176, 176, 176, 176, 176, 176, 176, 176, 176, 176, 176]","[1010, 1010, 1010, 1010, 1010, 1010, 1010, 1010, 1010, 1010, 1010, 1007, 1005, 998, 983, 976, 970, 961, 948, 944, 937, 930, 916, 909, 900, 894, 877, 867, 857, 849, 823, 809, 790, 770, 738, 725, 711, 693, 664, 652, 639, 625, 570, 545, 522, 488, 429, 398, 370, 342, 298, 275, 259, 242, 222, 212, 203, 198, 186, 178, 172, 165, 152, 149, 144, 137, 122, 116, 108, 102, 93, 88, 84, 83, 78, 76, 76, 75, 74, 74, 74, 74, 74, 74, 74, 74, 74, 74, 74, 73, 72, 72, 72, 72, 72, 71, 71, 71, 69, 69, 68, 67, 67, 64, 64, 64, 64, 63, 62, 62, 62, 62, 62, 62, 62, 61, 60, 60, 60, 60, 60, 60, 60, 60, 60, 60, 60, 60, 60, 60, 60, 60, 60, 60, 60, 60, 61, 61, 61, 63, 64, 64, 64, 65, 65, 65, 66, 67, 67, 68, 68, 68, 68, 68, 68, 68, 68, 68, 68, 68, 68, 68, 68, 68, 68, 68, 68, 68, 68, 68, 68, 68, 68, 68, 68, 68, 68, 68, 68, 68]"

"NoTrust","Teilnehmer A hat Ihnen keine 2 Punkte übermittelt.","Payback","1","undefined","0","0","0","60","1080","211","0","1","1807","8","legacy","[11, 21, 31, 41, 51, 61, 71, 81, 91, 101, 111, 121, 131, 141, 151, 161, 171, 181, 191, 201, 211, 221, 231, 241, 251, 261, 271, 281, 291, 301, 311, 321, 331, 341, 351, 361, 371, 381, 391, 401, 411, 421, 431, 441, 451, 461, 471, 481, 491, 501, 511, 521, 531, 541, 551, 561, 571, 581, 591, 601, 611, 621, 631, 641, 651, 661, 671, 681, 691, 701, 711, 721, 731, 741, 751, 761, 771, 781, 791, 801, 811, 821, 831, 841, 851, 861, 871, 881, 891, 901, 911, 921, 931, 941, 951, 961, 971, 981, 991, 1001, 1011, 1021, 1031, 1041, 1051, 1061, 1071, 1081, 1091, 1101, 1111, 1121, 1131, 1141, 1151, 1161, 1171, 1181, 1191, 1201, 1211, 1221, 1231, 1241, 1251, 1261, 1271, 1281, 1291, 1301, 1311, 1321, 1331, 1341, 1351, 1361, 1371, 1381, 1391, 1401, 1411, 1421, 1431, 1441, 1451, 1461, 1471, 1481, 1491, 1501, 1511, 1521, 1531, 1541, 1551, 1561, 1571, 1581, 1591, 1601, 1611, 1621, 1631, 1641, 1651, 1661, 1671, 1681, 1691, 1701, 1711, 1721, 1731, 1741, 1751, 1761, 1771, 1781, 1791, 1801]","1312","1920","[960, 960, 960, 960, 960, 960, 960, 960, 960, 960, 957, 954, 950, 944, 928, 919, 912, 903, 890, 886, 880, 875, 862, 854, 847, 842, 830, 823, 815, 810, 795, 787, 777, 769, 758, 753, 750, 745, 735, 732, 727, 721, 698, 681, 665, 641, 598, 574, 555, 535, 505, 490, 481, 470, 456, 453, 448, 446, 441, 437, 435, 430, 419, 416, 413, 406, 393, 387, 379, 373, 359, 353, 347, 342, 334, 331, 330, 326, 324, 324, 324, 324, 324, 324, 324, 324, 323, 322, 320, 319, 316, 314, 314, 313, 311, 310, 310, 306, 298, 294, 290, 284, 280, 269, 265, 261, 258, 250, 247, 245, 242, 237, 233, 230, 226, 219, 217, 215, 214, 209, 207, 204, 204, 203, 203, 203, 203, 203, 203, 203, 203, 203, 203, 202, 201, 201, 200, 200, 198, 196, 194, 194, 193, 187, 187, 186, 184, 182, 181, 179, 179, 176, 176, 176, 176, 176, 176, 176, 176, 176, 176, 176, 176, 176, 176, 176, 176, 176, 176, 176, 176, 176, 176, 176, 176, 176, 176, 176, 176, 176]","[1010, 1010, 1010, 1010, 1010, 1010, 1010, 1010, 1010, 1010, 1010, 1007, 1005, 998, 983, 976, 970, 961, 948, 944, 937, 930, 916, 909, 900, 894, 877, 867, 857, 849, 823, 809, 790, 770, 738, 725, 711, 693, 664, 652, 639, 625, 570, 545, 522, 488, 429, 398, 370, 342, 298, 275, 259, 242, 222, 212, 203, 198, 186, 178, 172, 165, 152, 149, 144, 137, 122, 116, 108, 102, 93, 88, 84, 83, 78, 76, 76, 75, 74, 74, 74, 74, 74, 74, 74, 74, 74, 74, 74, 73, 72, 72, 72, 72, 72, 71, 71, 71, 69, 69, 68, 67, 67, 64, 64, 64, 64, 63, 62, 62, 62, 62, 62, 62, 62, 61, 60, 60, 60, 60, 60, 60, 60, 60, 60, 60, 60, 60, 60, 60, 60, 60, 60, 60, 60, 60, 61, 61, 61, 63, 64, 64, 64, 65, 65, 65, 66, 67, 67, 68, 68, 68, 68, 68, 68, 68, 68, 68, 68, 68, 68, 68, 68, 68, 68, 68, 68, 68, 68, 68, 68, 68, 68, 68, 68, 68, 68, 68, 68, 68]"
"Trust","Teilnehmer A hat Ihnen 2 Punkte übermittelt.","Payback","1","undefined","1","0","0","60","1080","361","5","1","1341","8","legacy","[11, 21, 31, 41, 51, 61, 71, 81, 91, 101, 111, 121, 131, 141, 151, 161, 171, 181, 191, 201, 211, 221, 231, 241, 251, 261, 271, 281, 291, 301, 311, 321, 331, 341, 351, 361, 371, 381, 391, 401, 411, 421, 431, 441, 451, 461, 471, 481, 491, 501, 511, 521, 531, 541, 551, 561, 571, 581, 591, 601, 611, 621, 631, 641, 651, 661, 671, 681, 691, 701, 711, 721, 731, 741, 751, 761, 771, 781, 791, 801, 811, 821, 831, 841, 851, 861, 871, 881, 891, 901, 911, 921, 931, 941, 951, 961, 971, 981, 991, 1001, 1011, 1021, 1031, 1041, 1051, 1061, 1071, 1081, 1091, 1101, 1111, 1121, 1131, 1141, 1151, 1161, 1171, 1181, 1191, 1201, 1211, 1221, 1231, 1241, 1251, 1261, 1271, 1281, 1291, 1301, 1311, 1321, 1331, 1341]","1312","1920","[960, 960, 960, 960, 960, 960, 960, 960, 960, 960, 960, 960, 960, 960, 960, 960, 960, 960, 960, 960, 960, 960, 960, 960, 960, 960, 960, 958, 958, 957, 957, 955, 954, 953, 942, 931, 920, 904, 871, 849, 829, 806, 773, 757, 741, 725, 702, 694, 682, 668, 631, 609, 589, 566, 519, 497, 470, 446, 400, 384, 365, 347, 322, 309, 299, 291, 279, 273, 267, 263, 258, 256, 256, 256, 256, 256, 256, 256, 256, 256, 256, 256, 256, 256, 256, 254, 253, 252, 250, 249, 241, 238, 233, 230, 222, 217, 213, 210, 202, 201, 197, 194, 189, 187, 186, 182, 178, 175, 174, 173, 172, 171, 171, 170, 170, 170, 170, 170, 170, 170, 170, 170, 169, 169, 169, 169, 169, 169, 169, 169, 169, 169, 169, 169]","[1010, 1010, 1010, 1010, 1010, 1010, 1010, 1010, 1010, 1010, 1010, 1010, 1010, 1010, 1010, 1010, 1010, 1010, 1010, 1010, 1010, 1010, 1010, 1010, 1010, 1010, 1009, 1006, 1005, 1001, 992, 987, 980, 972, 947, 932, 915, 893, 848, 824, 801, 781, 746, 731, 712, 697, 671, 660, 644, 622, 574, 547, 524, 500, 438, 407, 368, 334, 272, 243, 215, 189, 149, 131, 117, 107, 89, 83, 76, 71, 65, 64, 63, 63, 63, 63, 63, 63, 63, 63, 63, 63, 63, 63, 63, 62, 60, 59, 59, 57, 54, 51, 50, 48, 46, 44, 43, 43, 40, 40, 40, 39, 39, 39, 39, 39, 39, 39, 39, 39, 39, 39, 39, 39, 39, 39, 39, 39, 39, 39, 39, 39, 39, 39, 39, 39, 39, 39, 39, 39, 39, 39, 39, 39]"
"Trust","Teilnehmer A hat Ihnen 2 Punkte übermittelt.","Payback","1","undefined","2","0","0","60","1080","291","5","1","1038","8","legacy","[11, 21, 31, 41, 51, 61, 71, 81, 91, 101, 111, 121, 131, 141, 151, 161, 171, 181, 191, 201, 211, 221, 231, 241, 251, 261, 271, 281, 291, 301, 311, 321, 331, 341, 351, 361, 371, 381, 391, 401, 411, 421, 431, 441, 451, 461, 471, 481, 491, 501, 511, 521, 531, 541, 551, 561, 571, 581, 591, 601, 611, 621, 631, 641, 651, 661, 671, 681, 691, 701, 711, 721, 731, 741, 751, 761, 771, 781, 791, 801, 811, 821, 831, 841, 851, 861, 871, 881, 891, 901, 911, 921, 931, 941, 951, 961, 971, 981, 991, 1001, 1011, 1021, 1031]","1312","1920","[960, 960, 960, 960, 960, 960, 960, 960, 960, 960, 960, 960, 960, 960, 960, 960, 960, 960, 959, 957, 957, 956, 953, 953, 950, 946, 937, 929, 916, 900, 857, 828, 805, 772, 699, 660, 617, 578, 504, 470, 432, 396, 335, 303, 282, 261, 233, 221, 214, 207, 198, 193, 190, 188, 183, 182, 182, 178, 175, 171, 169, 167, 163, 160, 158, 153, 148, 144, 142, 138, 135, 135, 135, 135, 135, 135, 135, 135, 135, 135, 135, 135, 135, 135, 135, 135, 135, 135, 135, 135, 135, 135, 135, 135, 135, 135, 135, 135, 135, 135, 135, 135, 135]","[1010, 1010, 1010, 1010, 1010, 1010, 1010, 1010, 1010, 1010, 1010, 1010, 1010, 1010, 1010, 1010, 1010, 1008, 1005, 1003, 1001, 998, 994, 991, 987, 979, 961, 947, 930, 908, 858, 824, 795, 758, 673, 630, 579, 533, 443, 403, 360, 323, 265, 237, 218, 200, 176, 167, 160, 154, 145, 141, 136, 135, 128, 125, 123, 118, 112, 108, 106, 103, 98, 95, 93, 89, 85, 83, 80, 76, 74, 74, 74, 74, 74, 74, 74, 74, 74, 74, 74, 74, 74, 74, 74, 74, 74, 74, 74, 74, 74, 74, 74, 74, 74, 74, 74, 74, 74, 74, 74, 74, 74]"
"Promise","Wie oft werden Sie die Hälfte zurückgeben?","Promise","1","undefined","2","0","1","60","1080","591","5","1","1424","8","legacy","[11, 21, 31, 41, 51, 61, 71, 81, 91, 101, 111, 121, 131, 141, 151, 161, 171, 181, 191, 201, 211, 221, 231, 241, 251, 261, 271, 281, 291, 301, 311, 321, 331, 341, 351, 361, 371, 381, 391, 401, 411, 421, 431, 441, 451, 461, 471, 481, 491, 501, 511, 521, 531, 541, 551, 561, 571, 581, 591, 601, 611, 621, 631, 641, 651, 661, 671, 681, 691, 701, 711, 721, 731, 741, 751, 761, 771, 781, 791, 801, 811, 821, 831, 841, 851, 861, 871, 881, 891, 901, 911, 921, 931, 941, 951, 961, 971, 981, 991, 1001, 1011, 1021, 1031, 1041, 1051, 1061, 1071, 1081, 1091, 1101, 1111, 1121, 1131, 1141, 1151, 1161, 1171, 1181, 1191, 1201, 1211, 1221, 1231, 1241, 1251, 1261, 1271, 1281, 1291, 1301, 1311, 1321, 1331, 1341, 1351, 1361, 1371, 1381, 1391, 1401, 1411, 1421]","1312","1920","[960, 960, 960, 960, 960, 960, 960, 960, 960, 960, 960, 960, 960, 960, 960, 960, 960, 960, 960, 960, 960, 960, 960, 960, 960, 960, 960, 960, 960, 960, 960, 960, 960, 960, 960, 960, 960, 960, 960, 960, 960, 960, 960, 962, 970, 979, 988, 991, 992, 995, 995, 995, 995, 995, 995, 994, 994, 994, 994, 994, 991, 982, 969, 948, 937, 920, 902, 877, 865, 851, 840, 815, 804, 783, 766, 724, 699, 678, 659, 607, 588, 562, 544, 504, 490, 478, 471, 455, 449, 444, 441, 436, 430, 426, 419, 405, 395, 389, 382, 373, 367, 361, 353, 339, 334, 331, 326, 322, 317, 312, 305, 287, 276, 265, 254, 235, 229, 223, 216, 207, 201, 197, 192, 188, 187, 187, 187, 187, 187, 187, 187, 187, 187, 187, 187, 187, 187, 187, 187, 187, 187, 187]","[1010, 1010, 1010, 1010, 1010, 1010, 1010, 1010, 1010, 1010, 1010, 1010, 1010, 1010, 1010, 1010, 1010, 1010, 1010, 1010, 1010, 1010, 1010, 1010, 1010, 1010, 1010, 1010, 1010, 1010, 1010, 1010, 1010, 1010, 1010, 1010, 1010, 1010, 1010, 1010, 1010, 1010, 1010, 1016, 1019, 1022, 1025, 1025, 1025, 1024, 1023, 1017, 1011, 1003, 996, 976, 962, 946, 920, 873, 844, 811, 774, 699, 663, 625, 580, 515, 481, 449, 425, 374, 346, 313, 285, 231, 202, 174, 155, 101, 81, 58, 43, 14, 3, 0, 0, 0, 0, 0, 0, 1, 2, 2, 6, 12, 16, 18, 21, 26, 28, 30, 33, 40, 42, 43, 46, 47, 49, 50, 51, 51, 51, 51, 50, 48, 48, 47, 45, 45, 45, 46, 46, 46, 47, 48, 48, 48, 48, 48, 48, 48, 48, 48, 48, 48, 48, 48, 48, 48, 48, 48]"
"Trust","Teilnehmer A hat Ihnen 2 Punkte übermittelt.","Payback","1","undefined","3","0","1","60","1080","231","5","1","1094","8","legacy","[11, 21, 31, 41, 51, 61, 71, 81, 91, 101, 111, 121, 131, 141, 151, 161, 171, 181, 191, 201, 211, 221, 231, 241, 251, 261, 271, 281, 291, 301, 311, 321, 331, 341, 351, 361, 371, 381, 391, 401, 411, 421, 431, 441, 451, 461, 471, 481, 491, 501, 511, 521, 531, 541, 551, 561, 571, 581, 591, 601, 611, 621, 631, 641, 651, 661, 671, 681, 691, 701, 711, 721, 731, 741, 751, 761, 771, 781, 791, 801, 811, 821, 831, 841, 851, 861, 871, 881, 891, 901, 911, 921, 931, 941, 951, 961, 971, 981, 991, 1001, 1011, 1021, 1031, 1041, 1051, 1061, 1071, 1081, 1091]","1312","1920","[960, 960, 960, 960, 960, 960, 960, 960, 960, 960, 960, 960, 960, 960, 960, 960, 960, 960, 956, 955, 953, 947, 927, 916, 905, 890, 860, 842, 819, 788, 731, 702, 672, 645, 592, 574, 563, 551, 534, 529, 526, 521, 516, 512, 509, 507, 503, 499, 496, 492, 481, 475, 465, 455, 434, 426, 416, 412, 405, 402, 400, 394, 380, 370, 357, 344, 308, 290, 271, 252, 207, 190, 174, 161, 145, 139, 133, 128, 123, 120, 117, 111, 99, 94, 89, 84, 83, 83, 83, 83, 83, 84, 85, 85, 87, 87, 88, 88, 88, 88, 88, 88, 90, 90, 90, 90, 90, 90, 90]","[1010, 1010, 1010, 1010, 1010, 1010, 1010, 1010, 1010, 1010, 1010, 1010, 1010, 1010, 1009, 1008, 1004, 999, 981, 973, 962, 947, 905, 872, 830, 788, 714, 684, 655, 618, 550, 515, 483, 454, 407, 392, 384, 376, 367, 365, 363, 362, 359, 358, 356, 355, 353, 351, 350, 347, 343, 341, 336, 332, 326, 325, 323, 321, 319, 318, 317, 316, 310, 307, 301, 295, 276, 265, 254, 243, 213, 200, 186, 173, 154, 144, 135, 129, 118, 113, 108, 103, 94, 89, 84, 79, 78, 75, 75, 74, 72, 72, 71, 71, 71, 71, 71, 71, 71, 71, 71, 71, 71, 71, 71, 71, 71, 71, 71]"
"Trust","Teilnehmer A hat Ihnen 2 Punkte übermittelt.","Payback","1","undefined","4","0","1","60","1080","271","5","1","1103","8","legacy","[11, 21, 31, 41, 51, 61, 71, 81, 91, 101, 111, 121, 131, 141, 151, 161, 171, 181, 191, 201, 211, 221, 231, 241, 251, 261, 271, 281, 291, 301, 311, 321, 331, 341, 351, 361, 371, 381, 391, 401, 411, 421, 431, 441, 451, 461, 471, 481, 491, 501, 511, 521, 531, 541, 551, 561, 571, 581, 591, 601, 611, 621, 631, 641, 651, 661, 671, 681, 691, 701, 711, 721, 731, 741, 751, 761, 771, 781, 791, 801, 811, 821, 831, 841, 851, 861, 871, 881, 891, 901, 911, 921, 931, 941, 951, 961, 971, 981, 991, 1001, 1011, 1021, 1031, 1041, 1051, 1061, 1071, 1081, 1091, 1101]","1312","1920","[960, 960, 960, 960, 960, 960, 960, 960, 960, 960, 960, 960, 960, 960, 960, 960, 960, 960, 960, 958, 958, 956, 951, 946, 940, 933, 907, 892, 874, 851, 804, 774, 739, 714, 651, 626, 603, 564, 509, 481, 466, 454, 435, 428, 420, 415, 412, 403, 398, 394, 388, 374, 370, 365, 358, 343, 336, 328, 321, 307, 298, 293, 286, 278, 275, 272, 268, 262, 256, 252, 249, 245, 244, 242, 240, 238, 238, 237, 237, 237, 235, 235, 235, 234, 234, 234, 233, 231, 229, 228, 228, 225, 224, 223, 222, 220, 220, 217, 217, 215, 214, 214, 214, 214, 214, 214, 214, 214, 214, 214]","[1010, 1010, 1010, 1010, 1010, 1010, 1010, 1010, 1010, 1010, 1010, 1010, 1010, 1010, 1010, 1010, 1008, 1006, 1004, 999, 997, 993, 977, 966, 954, 941, 907, 887, 866, 837, 785, 755, 720, 691, 617, 590, 562, 519, 458, 428, 413, 396, 370, 363, 353, 346, 343, 330, 324, 320, 315, 307, 305, 300, 296, 285, 278, 273, 267, 254, 247, 242, 236, 226, 221, 216, 210, 199, 193, 185, 181, 171, 168, 163, 159, 150, 144, 140, 136, 125, 119, 113, 109, 99, 96, 91, 89, 86, 85, 83, 83, 81, 80, 79, 78, 77, 77, 76, 76, 76, 76, 76, 76, 76, 76, 76, 76, 76, 76, 76]"
"Trust","Teilnehmer A hat Ihnen 2 Punkte übermittelt.","Payback","1","undefined","5","0","1","60","1080","231","5","1","1230","8","legacy","[11, 21, 31, 41, 51, 61, 71, 81, 91, 101, 111, 121, 131, 141, 151, 161, 171, 181, 191, 201, 211, 221, 231, 241, 251, 261, 271, 281, 291, 301, 311, 321, 331, 341, 351, 361, 371, 381, 391, 401, 411, 421, 431, 441, 451, 461, 471, 481, 491, 501, 511, 521, 531, 541, 551, 561, 571, 581, 591, 601, 611, 621, 631, 641, 651, 661, 671, 681, 691, 701, 711, 721, 731, 741, 751, 761, 771, 781, 791, 801, 811, 821, 831, 841, 851, 861, 871, 881, 891, 901, 911, 921, 931, 941, 951, 961, 971, 981, 991, 1001, 1011, 1021, 1031, 1041, 1051, 1061, 1071, 1081, 1091, 1101, 1111, 1121, 1131, 1141, 1151, 1161, 1171, 1181, 1191, 1201, 1211, 1221]","1312","1920","[960, 960, 960, 960, 960, 960, 960, 960, 960, 960, 961, 960, 960, 960, 958, 957, 957, 956, 953, 952, 948, 941, 930, 921, 916, 910, 894, 888, 876, 857, 808, 770, 728, 691, 619, 595, 563, 537, 489, 470, 449, 430, 386, 364, 346, 331, 297, 285, 275, 259, 236, 227, 218, 210, 197, 192, 188, 185, 185, 184, 183, 180, 174, 171, 169, 166, 165, 165, 165, 165, 165, 167, 170, 172, 177, 180, 180, 180, 180, 180, 177, 172, 165, 164, 163, 163, 161, 161, 161, 160, 159, 158, 158, 158, 158, 157, 157, 155, 155, 154, 153, 151, 150, 148, 147, 146, 144, 143, 142, 142, 141, 141, 141, 141, 141, 141, 141, 141, 141, 141, 141, 141]","[1010, 1010, 1010, 1010, 1010, 1010, 1010, 1010, 1010, 1010, 1010, 1009, 1007, 1005, 998, 994, 990, 985, 971, 965, 957, 944, 925, 913, 902, 892, 870, 859, 843, 822, 769, 735, 699, 668, 606, 582, 554, 531, 485, 466, 445, 426, 389, 373, 358, 344, 321, 312, 305, 293, 277, 269, 264, 257, 245, 240, 237, 232, 226, 222, 218, 213, 200, 194, 189, 184, 176, 173, 171, 170, 161, 157, 151, 147, 134, 124, 116, 105, 85, 72, 62, 54, 40, 36, 34, 32, 30, 30, 30, 30, 30, 30, 30, 30, 30, 30, 30, 31, 33, 34, 36, 38, 42, 45, 47, 48, 52, 54, 56, 56, 59, 59, 59, 59, 60, 60, 60, 60, 60, 60, 60, 60]"
"Promise","Wie oft werden Sie die Hälfte zurückgeben?","Promise","1","undefined","5","0","2","60","1080","251","5","1","1232","8","legacy","[11, 21, 31, 41, 51, 61, 71, 81, 91, 101, 111, 121, 131, 141, 151, 161, 171, 181, 191, 201, 211, 221, 231, 241, 251, 261, 271, 281, 291, 301, 311, 321, 331, 341, 351, 361, 371, 381, 391, 401, 411, 421, 431, 441, 451, 461, 471, 481, 491, 501, 511, 521, 531, 541, 551, 561, 571, 581, 591, 601, 611, 621, 631, 641, 651, 661, 671, 681, 691, 701, 711, 721, 731, 741, 751, 761, 771, 781, 791, 801, 811, 821, 831, 841, 851, 861, 871, 881, 891, 901, 911, 921, 931, 941, 951, 961, 971, 981, 991, 1001, 1011, 1021, 1031, 1041, 1051, 1061, 1071, 1081, 1091, 1101, 1111, 1121, 1131, 1141, 1151, 1161, 1171, 1181, 1191, 1201, 1211, 1221, 1231]","1312","1920","[960, 960, 960, 960, 960, 960, 960, 960, 960, 960, 959, 959, 959, 959, 958, 957, 955, 954, 953, 951, 950, 947, 945, 936, 933, 924, 917, 894, 875, 847, 829, 789, 767, 751, 738, 717, 708, 702, 689, 670, 655, 642, 633, 612, 604, 593, 584, 567, 556, 549, 543, 533, 528, 521, 514, 504, 499, 496, 493, 486, 483, 481, 480, 476, 475, 472, 468, 458, 449, 440, 430, 411, 402, 393, 387, 377, 373, 368, 364, 354, 349, 339, 329, 304, 299, 289, 283, 278, 276, 275, 273, 272, 271, 271, 271, 268, 265, 256, 249, 227, 214, 205, 197, 190, 190, 190, 190, 190, 190, 190, 190, 190, 190, 190, 190, 190, 190, 190, 190, 189, 189, 189, 189]","[1010, 1010, 1010, 1010, 1010, 1010, 1010, 1010, 1010, 1010, 1009, 1007, 1005, 1003, 1001, 996, 994, 992, 990, 981, 976, 970, 962, 942, 934, 921, 910, 870, 844, 803, 777, 730, 709, 691, 678, 653, 644, 635, 621, 602, 587, 574, 566, 548, 538, 524, 510, 484, 467, 453, 443, 421, 411, 398, 387, 366, 355, 345, 335, 319, 313, 305, 299, 287, 280, 274, 268, 256, 250, 244, 236, 222, 216, 208, 202, 193, 189, 184, 181, 172, 165, 160, 154, 140, 135, 129, 125, 120, 119, 118, 117, 116, 115, 115, 115, 113, 112, 109, 107, 101, 97, 94, 91, 90, 90, 90, 90, 90, 90, 90, 90, 90, 90, 90, 90, 90, 90, 90, 90, 90, 90, 90, 90]"
"Trust","Teilnehmer A hat Ihnen 2 Punkte übermittelt.","Payback","1","undefined","6","0","2","60","1080","231","5","1","1070","8","legacy","[11, 21, 31, 41, 51, 61, 71, 81, 91, 101, 111, 121, 131, 141, 151, 161, 171, 181, 191, 201, 211, 221, 231, 241, 251, 261, 271, 281, 291, 301, 311, 321, 331, 341, 351, 361, 371, 381, 391, 401, 411, 421, 431, 441, 451, 461, 471, 481, 491, 501, 511, 521, 531, 541, 551, 561, 571, 581, 591, 601, 611, 621, 631, 641, 651, 661, 671, 681, 691, 701, 711, 721, 731, 741, 751, 761, 771, 781, 791, 801, 811, 821, 831, 841, 851, 861, 871, 881, 891, 901, 911, 921, 931, 941, 951, 961, 971, 981, 991, 1001, 1011, 1021, 1031, 1041, 1051, 1061]","1312","1920","[960, 960, 960, 960, 960, 960, 960, 960, 960, 960, 960, 960, 960, 960, 960, 960, 960, 960, 960, 960, 960, 960, 957, 950, 949, 948, 943, 940, 937, 932, 919, 909, 905, 898, 882, 876, 870, 859, 830, 811, 789, 758, 688, 649, 605, 562, 480, 438, 398, 362, 294, 266, 239, 218, 186, 176, 168, 162, 152, 149, 148, 146, 143, 141, 141, 141, 138, 138, 137, 135, 132, 132, 132, 132, 131, 131, 131, 131, 131, 131, 131, 130, 130, 130, 129, 129, 129, 129, 128, 128, 128, 128, 128, 128, 128, 127, 127, 127, 127, 127, 127, 127, 127, 127, 127, 127]","[1010, 1010, 1010, 1010, 1010, 1010, 1010, 1010, 1010, 1010, 1008, 1005, 1002, 998, 994, 991, 987, 982, 967, 960, 951, 940, 914, 899, 888, 876, 847, 827, 803, 774, 727, 698, 679, 659, 618, 606, 591, 567, 496, 456, 412, 358, 247, 189, 131, 70, 0, 0, 0, 0, 0, 0, 0, 0, 0, 0, 0, 0, 0, 0, 0, 0, 1, 2, 2, 2, 4, 4, 5, 5, 7, 7, 7, 7, 7, 7, 8, 8, 8, 8, 9, 10, 10, 11, 12, 13, 14, 14, 15, 16, 17, 17, 18, 19, 22, 23, 24, 25, 25, 25, 26, 26, 26, 26, 26, 26]"
"Trust","Teilnehmer A hat Ihnen 2 Punkte übermittelt.","Payback","1","undefined","7","0","2","60","1080","281","5","1","1287","8","legacy","[11, 21, 31, 41, 51, 61, 71, 81, 91, 101, 111, 121, 131, 141, 151, 161, 171, 181, 191, 201, 211, 221, 231, 241, 251, 261, 271, 281, 291, 301, 311, 321, 331, 341, 351, 361, 371, 381, 391, 401, 411, 421, 431, 441, 451, 461, 471, 481, 491, 501, 511, 521, 531, 541, 551, 561, 571, 581, 591, 601, 611, 621, 631, 641, 651, 661, 671, 681, 691, 701, 711, 721, 731, 741, 751, 761, 771, 781, 791, 801, 811, 821, 831, 841, 851, 861, 871, 881, 891, 901, 911, 921, 931, 941, 951, 961, 971, 981, 991, 1001, 1011, 1021, 1031, 1041, 1051, 1061, 1071, 1081, 1091, 1101, 1111, 1121, 1131, 1141, 1151, 1161, 1171, 1181, 1191, 1201, 1211, 1221, 1231, 1241, 1251, 1261, 1271, 1281]","1312","1920","[960, 960, 960, 960, 960, 960, 960, 960, 960, 960, 960, 960, 960, 960, 959, 959, 959, 959, 959, 959, 959, 959, 957, 948, 938, 929, 917, 883, 853, 826, 800, 747, 714, 690, 671, 627, 606, 586, 568, 528, 513, 495, 485, 455, 445, 436, 426, 400, 392, 381, 373, 356, 350, 344, 336, 327, 321, 316, 312, 303, 302, 299, 297, 294, 294, 294, 294, 294, 294, 294, 294, 290, 286, 283, 279, 272, 271, 270, 270, 268, 268, 266, 266, 264, 264, 262, 261, 258, 254, 253, 250, 246, 244, 242, 239, 233, 230, 226, 222, 208, 199, 193, 186, 176, 171, 167, 164, 162, 160, 160, 160, 159, 159, 159, 159, 159, 159, 159, 159, 159, 159, 159, 159, 159, 159, 159, 159, 159]","[1010, 1010, 1010, 1010, 1010, 1010, 1010, 1010, 1010, 1010, 1010, 1010, 1010, 1009, 1009, 1006, 1004, 1003, 1003, 999, 997, 996, 990, 974, 962, 952, 940, 907, 880, 853, 826, 776, 744, 720, 699, 654, 635, 617, 600, 564, 549, 534, 525, 505, 496, 488, 479, 461, 455, 448, 441, 429, 423, 418, 410, 398, 389, 380, 371, 351, 343, 333, 325, 305, 296, 287, 279, 261, 252, 242, 231, 208, 197, 188, 181, 169, 165, 163, 162, 158, 158, 156, 156, 154, 153, 152, 151, 149, 148, 147, 145, 144, 142, 142, 141, 138, 136, 132, 131, 122, 117, 114, 109, 104, 101, 99, 97, 94, 93, 93, 93, 91, 91, 91, 91, 91, 91, 91, 91, 91, 91, 91, 91, 91, 91, 91, 91, 91]"
"NoTrust","Teilnehmer A hat Ihnen keine 2 Punkte übermittelt.","Payback","1","undefined","8","0","2","60","1080","281","0","1","1287","8","legacy","[11, 21, 31, 41, 51, 61, 71, 81, 91, 101, 111, 121, 131, 141, 151, 161, 171, 181, 191, 201, 211, 221, 231, 241, 251, 261, 271, 281, 291, 301, 311, 321, 331, 341, 351, 361, 371, 381, 391, 401, 411, 421, 431, 441, 451, 461, 471, 481, 491, 501, 511, 521, 531, 541, 551, 561, 571, 581, 591, 601, 611, 621, 631, 641, 651, 661, 671, 681, 691, 701, 711, 721, 731, 741, 751, 761, 771, 781, 791, 801, 811, 821, 831, 841, 851, 861, 871, 881, 891, 901, 911, 921, 931, 941, 951, 961, 971, 981, 991, 1001, 1011, 1021, 1031, 1041, 1051, 1061, 1071, 1081, 1091, 1101, 1111, 1121, 1131, 1141, 1151, 1161, 1171, 1181, 1191, 1201, 1211, 1221, 1231, 1241, 1251, 1261, 1271, 1281]","1312","1920","[960, 960, 960, 960, 960, 960, 960, 960, 960, 960, 960, 960, 960, 960, 959, 959, 959, 959, 959, 959, 959, 959, 957, 948, 938, 929, 917, 883, 853, 826, 800, 747, 714, 690, 671, 627, 606, 586, 568, 528, 513, 495, 485, 455, 445, 436, 426, 400, 392, 381, 373, 356, 350, 344, 336, 327, 321, 316, 312, 303, 302, 299, 297, 294, 294, 294, 294, 294, 294, 294, 294, 290, 286, 283, 279, 272, 271, 270, 270, 268, 268, 266, 266, 264, 264, 262, 261, 258, 254, 253, 250, 246, 244, 242, 239, 233, 230, 226, 222, 208, 199, 193, 186, 176, 171, 167, 164, 162, 160, 160, 160, 159, 159, 159, 159, 159, 159, 159, 159, 159, 159, 159, 159, 159, 159, 159, 159, 159]","[1010, 1010, 1010, 1010, 1010, 1010, 1010, 1010, 1010, 1010, 1010, 1010, 1010, 1009, 1009, 1006, 1004, 1003, 1003, 999, 997, 996, 990, 974, 962, 952, 940, 907, 880, 853, 826, 776, 744, 720, 699, 654, 635, 617, 600, 564, 549, 534, 525, 505, 496, 488, 479, 461, 455, 448, 441, 429, 423, 418, 410, 398, 389, 380, 371, 351, 343, 333, 325, 305, 296, 287, 279, 261, 252, 242, 231, 208, 197, 188, 181, 169, 165, 163, 162, 158, 158, 156, 156, 154, 153, 152, 151, 149, 148, 147, 145, 144, 142, 142, 141, 138, 136, 132, 131, 122, 117, 114, 109, 104, 101, 99, 97, 94, 93, 93, 93, 91, 91, 91, 91, 91, 91, 91, 91, 91, 91, 91, 91, 91, 91, 91, 91, 91]"
"Promise","Wie oft werden Sie die Hälfte zurückgeben?","Promise","1","undefined","8","0","3","60","1080","191","0","1","1375","8","legacy","[11, 21, 31, 41, 51, 61, 71, 81, 91, 101, 111, 121, 131, 141, 151, 161, 171, 181, 191, 201, 211, 221, 231, 241, 251, 261, 271, 281, 291, 301, 311, 321, 331, 341, 351, 361, 371, 381, 391, 401, 411, 421, 431, 441, 451, 461, 471, 481, 491, 501, 511, 521, 531, 541, 551, 561, 571, 581, 591, 601, 611, 621, 631, 641, 651, 661, 671, 681, 691, 701, 711, 721, 731, 741, 751, 761, 771, 781, 791, 801, 811, 821, 831, 841, 851, 861, 871, 881, 891, 901, 911, 921, 931, 941, 951, 961, 971, 981, 991, 1001, 1011, 1021, 1031, 1041, 1051, 1061, 1071, 1081, 1091, 1101, 1111, 1121, 1131, 1141, 1151, 1161, 1171, 1181, 1191, 1201, 1211, 1221, 1231, 1241, 1251, 1261, 1271, 1281, 1291, 1301, 1311, 1321, 1331, 1341, 1351, 1361, 1371]","1312","1920","[960, 960, 960, 960, 960, 960, 960, 960, 960, 960, 960, 958, 956, 954, 950, 943, 938, 932, 922, 906, 899, 890, 882, 869, 860, 852, 843, 833, 826, 819, 816, 812, 812, 813, 813, 810, 807, 803, 796, 784, 768, 750, 730, 694, 681, 672, 664, 649, 639, 630, 620, 591, 576, 556, 539, 505, 479, 457, 431, 375, 342, 302, 269, 208, 171, 139, 117, 75, 62, 53, 46, 34, 32, 28, 25, 20, 19, 17, 17, 17, 17, 17, 17, 17, 18, 21, 23, 32, 35, 38, 41, 47, 47, 48, 50, 51, 51, 53, 54, 58, 59, 62, 65, 72, 77, 82, 85, 91, 94, 97, 98, 100, 100, 100, 100, 100, 100, 100, 100, 100, 100, 100, 100, 100, 100, 100, 100, 100, 100, 100, 100, 100, 100, 100, 100, 100, 100]","[1010, 1010, 1010, 1010, 1010, 1010, 1010, 1010, 1010, 1010, 1009, 1001, 996, 989, 981, 965, 957, 947, 931, 897, 880, 859, 836, 789, 761, 730, 694, 633, 600, 570, 543, 502, 491, 479, 466, 447, 438, 433, 426, 411, 397, 383, 365, 334, 321, 312, 304, 286, 276, 265, 255, 235, 224, 209, 198, 172, 153, 137, 120, 78, 60, 38, 20, 0, 0, 0, 0, 0, 0, 0, 0, 0, 0, 0, 2, 7, 11, 15, 19, 27, 32, 35, 38, 44, 48, 55, 58, 68, 72, 74, 77, 79, 80, 80, 80, 81, 81, 82, 83, 84, 84, 84, 85, 85, 85, 86, 86, 86, 86, 86, 86, 86, 86, 86, 86, 86, 86, 86, 86, 86, 86, 86, 86, 86, 86, 86, 86, 86, 86, 86, 86, 86, 86, 86, 86, 86, 86]"
"Trust","Teilnehmer A hat Ihnen 2 Punkte übermittelt.","Payback","1","undefined","9","0","3","60","1080","261","5","1","3422","8","legacy","[11, 21, 31, 41, 51, 61, 71, 81, 91, 101, 111, 121, 131, 141, 151, 161, 171, 181, 191, 201, 211, 221, 231, 241, 251, 261, 271, 281, 291, 301, 311, 321, 331, 341, 351, 361, 371, 381, 391, 401, 411, 421, 431, 441, 451, 461, 471, 481, 491, 501, 511, 521, 531, 541, 551, 561, 571, 581, 591, 601, 611, 621, 631, 641, 651, 661, 671, 681, 691, 701, 711, 721, 731, 741, 751, 761, 771, 781, 791, 801, 811, 821, 831, 841, 851, 861, 871, 881, 891, 901, 911, 921, 931, 941, 951, 961, 971, 981, 991, 1001, 1011, 1021, 1031, 1041, 1051, 1061, 1071, 1081, 1091, 1101, 1111, 1121, 1131, 1141, 1151, 1161, 1171, 1181, 1191, 1201, 1211, 1221, 1231, 1241, 1251, 1261, 1271, 1281, 1291, 1301, 1311, 1321, 1331, 1341, 1351, 1361, 1371, 1381, 1391, 1401, 1411, 1421, 1431, 1441, 1451, 1461, 1471, 1481, 1491, 1501, 1511, 1521, 1531, 1541, 1551, 1561, 1571, 1581, 1591, 1601, 1611, 1621, 1631, 1641, 1651, 1661, 1671, 1681, 1691, 1701, 1711, 1721, 1731, 1741, 1751, 1761, 1771, 1781, 1791, 1801, 1811, 1821, 1831, 1841, 1851, 1861, 1871, 1881, 1891, 1901, 1911, 1921, 1931, 1941, 1951, 1961, 1971, 1981, 1991, 2001, 2011, 2021, 2031, 2041, 2051, 2061, 2071, 2081, 2091, 2101, 2111, 2121, 2131, 2141, 2151, 2161, 2171, 2181, 2191, 2201, 2211, 2221, 2231, 2241, 2251, 2261, 2271, 2281, 2291, 2301, 2311, 2321, 2331, 2341, 2351, 2361, 2371, 2381, 2391, 2401, 2411, 2421, 2431, 2441, 2451, 2461, 2471, 2481, 2491, 2501, 2511, 2521, 2531, 2541, 2551, 2561, 2571, 2581, 2591, 2601, 2611, 2621, 2631, 2641, 2651, 2661, 2671, 2681, 2691, 2701, 2711, 2721, 2731, 2741, 2751, 2761, 2771, 2781, 2791, 2801, 2811, 2821, 2831, 2841, 2851, 2861, 2871, 2881, 2891, 2901, 2911, 2921, 2931, 2941, 2951, 2961, 2971, 2981, 2991, 3001, 3011, 3021, 3031, 3041, 3051, 3061, 3071, 3081, 3091, 3101, 3111, 3121, 3131, 3141, 3151, 3161, 3171, 3181, 3191, 3201, 3211, 3221, 3231, 3241, 3251, 3261, 3271, 3281, 3291, 3301, 3311, 3321, 3331, 3341, 3351, 3361, 3371, 3381, 3391, 3401, 3411, 3421]","1312","1920","[960, 960, 960, 960, 960, 960, 960, 960, 960, 960, 960, 960, 960, 960, 960, 960, 960, 960, 960, 960, 960, 960, 960, 960, 960, 960, 961, 961, 961, 961, 961, 961, 961, 961, 950, 947, 942, 936, 928, 924, 919, 915, 907, 900, 894, 887, 876, 871, 865, 861, 847, 839, 832, 824, 809, 803, 798, 796, 791, 789, 785, 784, 780, 780, 778, 778, 777, 775, 774, 772, 769, 768, 766, 765, 761, 758, 756, 753, 747, 742, 740, 734, 725, 718, 713, 706, 691, 683, 677, 671, 659, 653, 648, 642, 627, 619, 612, 601, 584, 574, 566, 557, 537, 527, 516, 504, 479, 469, 458, 448, 426, 415, 403, 392, 367, 357, 346, 339, 326, 323, 318, 315, 314, 314, 314, 314, 314, 314, 314, 314, 312, 312, 312, 312, 312, 312, 312, 312, 312, 312, 312, 312, 312, 312, 312, 312, 312, 312, 312, 312, 312, 311, 311, 309, 305, 304, 300, 300, 298, 298, 297, 297, 294, 294, 294, 293, 291, 290, 285, 284, 280, 279, 279, 277, 277, 276, 276, 276, 276, 276, 276, 276, 276, 276, 276, 276, 276, 276, 276, 276, 276, 276, 276, 276, 276, 276, 276, 276, 276, 276, 276, 276, 273, 272, 269, 266, 259, 256, 251, 245, 235, 227, 221, 215, 204, 196, 190, 184, 176, 168, 164, 158, 146, 140, 136, 132, 127, 122, 122, 121, 121, 121, 121, 121, 121, 121, 121, 121, 121, 121, 121, 121, 122, 122, 122, 122, 123, 123, 124, 124, 124, 124, 125, 125, 125, 125, 125, 125, 125, 125, 125, 125, 125, 125, 125, 125, 125, 125, 125, 125, 125, 125, 125, 125, 125, 125, 125, 125, 125, 125, 125, 125, 125, 125, 125, 125, 125, 125, 125, 125, 125, 125, 125, 125, 125, 125, 125, 125, 125, 125, 125, 125, 125, 125, 125, 125, 125, 125, 125, 125, 125, 125, 125, 125, 125, 125, 125, 125, 125, 125, 125, 125, 125, 125, 125, 125, 125, 125, 125, 125, 125, 125, 125, 125, 125, 125, 125, 125, 125, 125, 125, 125]","[1010, 1010, 1010, 1010, 1010, 1010, 1010, 1010, 1010, 1010, 1010, 1010, 1009, 1008, 1007, 1005, 1004, 1001, 994, 992, 986, 980, 965, 957, 948, 937, 908, 892, 872, 855, 810, 788, 746, 713, 663, 649, 637, 624, 604, 597, 585, 577, 560, 551, 542, 534, 521, 515, 509, 505, 494, 489, 484, 478, 468, 463, 460, 459, 455, 453, 452, 451, 449, 449, 449, 448, 448, 446, 445, 443, 441, 441, 440, 439, 435, 434, 432, 430, 425, 422, 420, 415, 410, 406, 404, 400, 390, 385, 379, 374, 364, 361, 356, 351, 339, 332, 324, 316, 305, 300, 296, 289, 278, 271, 265, 261, 251, 247, 243, 238, 233, 229, 225, 221, 215, 212, 209, 207, 203, 202, 200, 200, 199, 199, 199, 199, 199, 199, 199, 199, 199, 199, 199, 199, 199, 199, 199, 199, 199, 199, 199, 199, 199, 199, 198, 198, 198, 198, 198, 198, 197, 196, 195, 195, 192, 192, 191, 190, 189, 189, 188, 188, 187, 187, 186, 186, 185, 185, 182, 182, 182, 182, 181, 181, 181, 181, 181, 181, 181, 181, 181, 181, 181, 181, 181, 181, 181, 181, 181, 181, 181, 181, 181, 181, 181, 181, 181, 181, 181, 181, 181, 181, 179, 178, 176, 174, 169, 167, 163, 160, 151, 145, 140, 135, 128, 124, 119, 116, 111, 107, 105, 103, 99, 95, 92, 91, 90, 89, 88, 88, 88, 88, 88, 88, 88, 88, 88, 88, 88, 88, 88, 88, 88, 88, 88, 88, 88, 88, 88, 88, 88, 88, 88, 88, 88, 88, 88, 88, 88, 88, 88, 88, 88, 88, 88, 88, 88, 88, 88, 88, 88, 88, 88, 88, 88, 88, 88, 88, 88, 88, 88, 88, 88, 88, 88, 88, 88, 88, 88, 88, 88, 88, 88, 88, 88, 88, 88, 88, 88, 88, 88, 88, 88, 88, 88, 88, 88, 88, 88, 88, 88, 88, 88, 88, 88, 88, 88, 88, 88, 88, 88, 88, 88, 88, 88, 88, 88, 88, 88, 88, 88, 88, 88, 88, 88, 88, 88, 88, 88, 88, 88, 88]"
"Trust","Teilnehmer A hat Ihnen 2 Punkte übermittelt.","Payback","1","undefined","10","0","3","60","1080","231","5","1","1246","8","legacy","[11, 21, 31, 41, 51, 61, 71, 81, 91, 101, 111, 121, 131, 141, 151, 161, 171, 181, 191, 201, 211, 221, 231, 241, 251, 261, 271, 281, 291, 301, 311, 321, 331, 341, 351, 361, 371, 381, 391, 401, 411, 421, 431, 441, 451, 461, 471, 481, 491, 501, 511, 521, 531, 541, 551, 561, 571, 581, 591, 601, 611, 621, 631, 641, 651, 661, 671, 681, 691, 701, 711, 721, 731, 741, 751, 761, 771, 781, 791, 801, 811, 821, 831, 841, 851, 861, 871, 881, 891, 901, 911, 921, 931, 941, 951, 961, 971, 981, 991, 1001, 1011, 1021, 1031, 1041, 1051, 1061, 1071, 1081, 1091, 1101, 1111, 1121, 1131, 1141, 1151, 1161, 1171, 1181, 1191, 1201, 1211, 1221, 1231, 1241]","1312","1920","[960, 960, 960, 960, 960, 960, 960, 960, 960, 960, 960, 960, 960, 960, 961, 963, 963, 965, 969, 970, 970, 970, 970, 970, 970, 968, 955, 939, 927, 916, 888, 877, 865, 853, 821, 808, 797, 783, 766, 759, 753, 751, 747, 746, 746, 744, 738, 731, 723, 717, 700, 691, 676, 665, 624, 607, 583, 546, 502, 482, 465, 448, 421, 409, 398, 388, 371, 364, 358, 354, 350, 350, 348, 346, 338, 332, 328, 320, 311, 308, 308, 308, 307, 305, 304, 300, 288, 279, 269, 262, 244, 238, 228, 222, 213, 210, 208, 207, 207, 207, 206, 204, 203, 201, 200, 199, 199, 199, 199, 199, 199, 199, 199, 199, 199, 199, 199, 199, 199, 199, 199, 199, 199, 199]","[1010, 1010, 1010, 1010, 1010, 1010, 1010, 1010, 1010, 1010, 1010, 1010, 1010, 1010, 1007, 1004, 1001, 995, 983, 974, 968, 959, 932, 911, 886, 859, 781, 736, 687, 640, 548, 504, 463, 426, 352, 325, 304, 282, 261, 255, 248, 247, 245, 244, 243, 242, 238, 234, 227, 223, 212, 208, 202, 196, 175, 168, 157, 144, 124, 118, 113, 106, 94, 91, 89, 86, 81, 79, 78, 76, 76, 76, 76, 76, 76, 76, 76, 74, 74, 72, 72, 72, 72, 72, 72, 72, 75, 75, 75, 75, 75, 75, 75, 75, 75, 75, 75, 75, 75, 75, 75, 75, 75, 75, 75, 76, 76, 76, 76, 76, 76, 76, 76, 76, 76, 76, 76, 76, 76, 76, 76, 76, 76, 76]"
"Trust","Teilnehmer A hat Ihnen 2 Punkte übermittelt.","Payback","1","undefined","11","0","3","60","1080","211","5","1","1286","8","legacy","[11, 21, 31, 41, 51, 61, 71, 81, 91, 101, 111, 121, 131, 141, 151, 161, 171, 181, 191, 201, 211, 221, 231, 241, 251, 261, 271, 281, 291, 301, 311, 321, 331, 341, 351, 361, 371, 381, 391, 401, 411, 421, 431, 441, 451, 461, 471, 481, 491, 501, 511, 521, 531, 541, 551, 561, 571, 581, 591, 601, 611, 621, 631, 641, 651, 661, 671, 681, 691, 701, 711, 721, 731, 741, 751, 761, 771, 781, 791, 801, 811, 821, 831, 841, 851, 861, 871, 881, 891, 901, 911, 921, 931, 941, 951, 961, 971, 981, 991, 1001, 1011, 1021, 1031, 1041, 1051, 1061, 1071, 1081, 1091, 1101, 1111, 1121, 1131, 1141, 1151, 1161, 1171, 1181, 1191, 1201, 1211, 1221, 1231, 1241, 1251, 1261, 1271, 1281]","1312","1920","[960, 960, 960, 960, 960, 960, 960, 960, 960, 960, 959, 957, 956, 956, 956, 956, 956, 956, 956, 956, 956, 955, 949, 945, 941, 932, 911, 899, 888, 870, 826, 807, 790, 780, 758, 748, 739, 725, 688, 659, 620, 584, 505, 472, 434, 404, 342, 311, 294, 276, 257, 252, 252, 251, 248, 247, 247, 245, 243, 241, 241, 240, 236, 234, 234, 233, 232, 232, 232, 231, 230, 230, 228, 227, 226, 226, 224, 223, 222, 220, 220, 220, 220, 220, 220, 220, 220, 220, 220, 220, 220, 220, 220, 220, 220, 220, 220, 220, 220, 220, 220, 220, 220, 220, 220, 220, 220, 220, 220, 220, 220, 220, 220, 220, 220, 220, 220, 220, 220, 220, 220, 220, 220, 220, 220, 220, 220, 220]","[1010, 1010, 1010, 1010, 1010, 1010, 1010, 1010, 1010, 1010, 1009, 1006, 1004, 1000, 993, 988, 980, 972, 954, 942, 930, 916, 888, 866, 845, 817, 747, 703, 661, 611, 501, 461, 421, 390, 343, 326, 310, 290, 242, 214, 189, 166, 116, 98, 75, 57, 29, 19, 13, 11, 9, 9, 9, 9, 9, 11, 12, 14, 16, 18, 19, 20, 23, 24, 25, 26, 27, 27, 29, 30, 35, 37, 39, 41, 43, 44, 46, 47, 50, 52, 52, 53, 53, 53, 53, 53, 53, 53, 53, 53, 53, 53, 53, 53, 53, 53, 53, 53, 53, 53, 53, 53, 53, 53, 53, 53, 53, 53, 53, 53, 53, 53, 53, 53, 53, 53, 53, 53, 53, 53, 53, 53, 53, 53, 53, 53, 53, 53]"
"Promise","Wie oft werden Sie die Hälfte zurückgeben?","Promise","1","undefined","11","0","4","60","1080","261","5","1","1441","8","legacy","[11, 21, 31, 41, 51, 61, 71, 81, 91, 101, 111, 121, 131, 141, 151, 161, 171, 181, 191, 201, 211, 221, 231, 241, 251, 261, 271, 281, 291, 301, 311, 321, 331, 341, 351, 361, 371, 381, 391, 401, 411, 421, 431, 441, 451, 461, 471, 481, 491, 501, 511, 521, 531, 541, 551, 561, 571, 581, 591, 601, 611, 621, 631, 641, 651, 661, 671, 681, 691, 701, 711, 721, 731, 741, 751, 761, 771, 781, 791, 801, 811, 821, 831, 841, 851, 861, 871, 881, 891, 901, 911, 921, 931, 941, 951, 961, 971, 981, 991, 1001, 1011, 1021, 1031, 1041, 1051, 1061, 1071, 1081, 1091, 1101, 1111, 1121, 1131, 1141, 1151, 1161, 1171, 1181, 1191, 1201, 1211, 1221, 1231, 1241, 1251, 1261, 1271, 1281, 1291, 1301, 1311, 1321, 1331, 1341, 1351, 1361, 1371, 1381, 1391, 1401, 1411, 1421, 1431, 1441]","1312","1920","[960, 960, 960, 960, 960, 960, 960, 960, 960, 960, 960, 960, 960, 960, 960, 960, 960, 960, 960, 961, 962, 963, 963, 963, 963, 963, 963, 963, 963, 963, 963, 963, 955, 945, 932, 919, 893, 883, 867, 857, 838, 830, 816, 805, 778, 765, 754, 741, 717, 706, 696, 681, 656, 638, 618, 600, 549, 521, 492, 449, 380, 343, 309, 273, 200, 170, 142, 116, 64, 41, 27, 16, 0, 0, 0, 0, 0, 0, 0, 0, 0, 0, 0, 0, 0, 0, 0, 0, 0, 0, 0, 0, 0, 0, 0, 0, 0, 0, 0, 0, 0, 0, 0, 0, 0, 1, 3, 6, 10, 14, 17, 20, 32, 39, 48, 56, 70, 75, 79, 82, 85, 85, 85, 85, 85, 85, 85, 85, 85, 85, 85, 85, 85, 85, 85, 85, 85, 85, 85, 85, 85, 85, 85, 85]","[1010, 1010, 1010, 1010, 1010, 1010, 1010, 1010, 1010, 1010, 1010, 1010, 1010, 1010, 1010, 1010, 1009, 1007, 1003, 999, 989, 984, 976, 967, 942, 930, 917, 903, 872, 852, 832, 812, 759, 720, 678, 642, 566, 530, 490, 456, 395, 372, 340, 314, 261, 234, 210, 186, 147, 131, 119, 98, 73, 56, 39, 26, 0, 0, 0, 0, 0, 0, 0, 0, 0, 0, 0, 0, 0, 0, 0, 0, 0, 0, 0, 0, 0, 0, 0, 0, 0, 1, 2, 3, 3, 4, 4, 4, 5, 6, 6, 6, 7, 7, 8, 8, 9, 12, 16, 24, 42, 53, 61, 68, 77, 79, 80, 81, 82, 82, 82, 82, 79, 76, 75, 72, 70, 70, 70, 70, 70, 70, 70, 70, 70, 70, 70, 70, 70, 70, 70, 70, 70, 70, 70, 70, 70, 70, 70, 70, 70, 70, 70, 70]"
"Trust","Teilnehmer A hat Ihnen 2 Punkte übermittelt.","Payback","1","undefined","12","0","4","60","1080","291","5","1","1277","8","legacy","[11, 21, 31, 41, 51, 61, 71, 81, 91, 101, 111, 121, 131, 141, 151, 161, 171, 181, 191, 201, 211, 221, 231, 241, 251, 261, 271, 281, 291, 301, 311, 321, 331, 341, 351, 361, 371, 381, 391, 401, 411, 421, 431, 441, 451, 461, 471, 481, 491, 501, 511, 521, 531, 541, 551, 561, 571, 581, 591, 601, 611, 621, 631, 641, 651, 661, 671, 681, 691, 701, 711, 721, 731, 741, 751, 761, 771, 781, 791, 801, 811, 821, 831, 841, 851, 861, 871, 881, 891, 901, 911, 921, 931, 941, 951, 961, 971, 981, 991, 1001, 1011, 1021, 1031, 1041, 1051, 1061, 1071, 1081, 1091, 1101, 1111, 1121, 1131, 1141, 1151, 1161, 1171, 1181, 1191, 1201, 1211, 1221, 1231, 1241, 1251, 1261, 1271]","1312","1920","[960, 960, 960, 960, 960, 960, 960, 960, 960, 960, 960, 960, 960, 960, 960, 960, 960, 960, 960, 960, 960, 960, 960, 960, 960, 959, 957, 954, 953, 950, 943, 938, 935, 928, 915, 910, 898, 895, 878, 867, 858, 848, 825, 812, 800, 783, 757, 745, 732, 718, 684, 665, 646, 631, 595, 581, 570, 560, 540, 530, 520, 511, 490, 476, 467, 455, 434, 422, 410, 399, 381, 369, 359, 340, 332, 323, 313, 307, 296, 293, 286, 271, 261, 249, 241, 228, 222, 217, 215, 210, 198, 191, 180, 164, 156, 148, 142, 136, 136, 135, 135, 134, 134, 134, 134, 134, 134, 134, 134, 134, 134, 134, 134, 134, 134, 134, 134, 134, 134, 134, 134, 134, 134, 134, 135, 135, 135]","[1010, 1010, 1010, 1010, 1010, 1010, 1010, 1010, 1010, 1010, 1010, 1010, 1010, 1010, 1010, 1010, 1010, 1010, 1007, 1004, 999, 996, 986, 982, 975, 969, 955, 947, 937, 927, 903, 889, 879, 862, 830, 815, 793, 783, 757, 741, 729, 713, 685, 664, 649, 631, 594, 581, 564, 548, 510, 489, 470, 450, 416, 403, 391, 380, 361, 350, 340, 332, 315, 304, 296, 286, 270, 262, 253, 247, 230, 223, 218, 207, 202, 197, 192, 189, 184, 184, 181, 172, 168, 162, 156, 148, 144, 139, 137, 132, 119, 112, 106, 94, 88, 83, 80, 75, 74, 73, 73, 72, 72, 72, 72, 72, 72, 72, 72, 71, 71, 71, 71, 71, 71, 71, 71, 71, 71, 71, 71, 71, 71, 71, 71, 71, 71]"
"Trust","Teilnehmer A hat Ihnen 2 Punkte übermittelt.","Payback","1","undefined","13","0","4","60","1080","191","5","1","1149","8","legacy","[11, 21, 31, 41, 51, 61, 71, 81, 91, 101, 111, 121, 131, 141, 151, 161, 171, 181, 191, 201, 211, 221, 231, 241, 251, 261, 271, 281, 291, 301, 311, 321, 331, 341, 351, 361, 371, 381, 391, 401, 411, 421, 431, 441, 451, 461, 471, 481, 491, 501, 511, 521, 531, 541, 551, 561, 571, 581, 591, 601, 611, 621, 631, 641, 651, 661, 671, 681, 691, 701, 711, 721, 731, 741, 751, 761, 771, 781, 791, 801, 811, 821, 831, 841, 851, 861, 871, 881, 891, 901, 911, 921, 931, 941, 951, 961, 971, 981, 991, 1001, 1011, 1021, 1031, 1041, 1051, 1061, 1071, 1081, 1091, 1101, 1111, 1121, 1131, 1141]","1312","1920","[960, 960, 960, 960, 960, 960, 960, 960, 960, 960, 960, 960, 960, 960, 960, 961, 962, 962, 963, 963, 963, 963, 953, 944, 934, 920, 885, 855, 820, 791, 732, 714, 699, 685, 670, 664, 657, 648, 632, 622, 614, 603, 588, 582, 575, 569, 551, 542, 533, 524, 505, 496, 487, 480, 465, 460, 454, 450, 435, 426, 414, 401, 374, 355, 341, 328, 300, 286, 272, 256, 236, 227, 218, 212, 199, 194, 187, 177, 162, 154, 146, 141, 132, 131, 128, 128, 128, 127, 127, 127, 127, 127, 127, 127, 127, 127, 127, 127, 127, 127, 127, 127, 127, 127, 127, 127, 127, 127, 127, 127, 127, 127, 127, 127]","[1010, 1010, 1010, 1010, 1010, 1010, 1010, 1010, 1010, 1010, 1007, 1005, 1001, 997, 984, 979, 970, 962, 936, 923, 908, 893, 858, 837, 818, 796, 741, 697, 652, 615, 549, 526, 505, 490, 471, 463, 457, 449, 439, 436, 430, 422, 411, 404, 398, 390, 371, 362, 353, 346, 330, 322, 315, 308, 299, 295, 291, 288, 279, 274, 267, 256, 241, 229, 222, 215, 198, 191, 184, 174, 162, 157, 152, 149, 142, 140, 136, 131, 123, 118, 114, 110, 103, 101, 99, 97, 96, 94, 94, 94, 94, 94, 94, 94, 94, 94, 94, 94, 94, 94, 94, 94, 94, 94, 93, 93, 93, 93, 93, 93, 93, 93, 93, 93]"
"Trust","Teilnehmer A hat Ihnen 2 Punkte übermittelt.","Payback","1","undefined","14","0","4","60","1080","261","5","1","1229","8","legacy","[11, 21, 31, 41, 51, 61, 71, 81, 91, 101, 111, 121, 131, 141, 151, 161, 171, 181, 191, 201, 211, 221, 231, 241, 251, 261, 271, 281, 291, 301, 311, 321, 331, 341, 351, 361, 371, 381, 391, 401, 411, 421, 431, 441, 451, 461, 471, 481, 491, 501, 511, 521, 531, 541, 551, 561, 571, 581, 591, 601, 611, 621, 631, 641, 651, 661, 671, 681, 691, 701, 711, 721, 731, 741, 751, 761, 771, 781, 791, 801, 811, 821, 831, 841, 851, 861, 871, 881, 891, 901, 911, 921, 931, 941, 951, 961, 971, 981, 991, 1001, 1011, 1021, 1031, 1041, 1051, 1061, 1071, 1081, 1091, 1101, 1111, 1121, 1131, 1141, 1151, 1161, 1171, 1181, 1191, 1201, 1211, 1221]","1312","1920","[960, 960, 960, 960, 960, 960, 960, 960, 960, 960, 960, 960, 960, 960, 960, 960, 960, 960, 960, 960, 960, 960, 956, 952, 947, 943, 932, 926, 919, 911, 897, 889, 874, 862, 842, 834, 825, 818, 807, 801, 797, 786, 768, 756, 740, 728, 686, 661, 639, 614, 579, 564, 556, 551, 542, 539, 537, 535, 533, 533, 532, 532, 531, 530, 528, 528, 520, 514, 510, 501, 483, 473, 463, 454, 430, 416, 404, 390, 357, 336, 318, 301, 268, 257, 249, 242, 238, 238, 238, 238, 237, 236, 235, 235, 233, 232, 232, 231, 230, 230, 229, 229, 229, 229, 229, 229, 229, 228, 228, 228, 228, 228, 228, 228, 228, 228, 228, 228, 228, 228, 228, 228]","[1010, 1010, 1010, 1010, 1010, 1010, 1010, 1010, 1010, 1010, 1010, 1010, 1010, 1010, 1010, 1010, 1008, 1004, 996, 993, 990, 984, 967, 956, 946, 934, 904, 890, 879, 867, 842, 826, 802, 782, 730, 705, 677, 652, 615, 598, 579, 553, 502, 473, 443, 414, 346, 312, 276, 242, 189, 165, 149, 137, 114, 107, 101, 97, 93, 91, 90, 90, 89, 88, 86, 86, 83, 81, 79, 77, 71, 70, 67, 65, 60, 59, 57, 56, 51, 48, 47, 47, 43, 42, 42, 41, 39, 39, 39, 39, 39, 39, 39, 39, 39, 39, 39, 39, 39, 39, 40, 40, 40, 40, 40, 40, 41, 41, 41, 41, 42, 42, 42, 42, 42, 42, 42, 42, 42, 42, 42, 42]"
"Promise","Wie oft werden Sie die Hälfte zurückgeben?","Promise","1","undefined","14","0","5","60","1080","191","5","1","984","8","legacy","[11, 21, 31, 41, 51, 61, 71, 81, 91, 101, 111, 121, 131, 141, 151, 161, 171, 181, 191, 201, 211, 221, 231, 241, 251, 261, 271, 281, 291, 301, 311, 321, 331, 341, 351, 361, 371, 381, 391, 401, 411, 421, 431, 441, 451, 461, 471, 481, 491, 501, 511, 521, 531, 541, 551, 561, 571, 581, 591, 601, 611, 621, 631, 641, 651, 661, 671, 681, 691, 701, 711, 721, 731, 741, 751, 761, 771, 781, 791, 801, 811, 821, 831, 841, 851, 861, 871, 881, 891, 901, 911, 921, 931, 941, 951, 961, 971, 981]","1312","1920","[960, 960, 960, 960, 960, 960, 960, 960, 960, 959, 958, 957, 956, 954, 954, 954, 954, 954, 950, 934, 918, 899, 882, 837, 805, 770, 728, 644, 603, 565, 527, 477, 448, 422, 394, 337, 317, 290, 269, 230, 219, 209, 201, 193, 188, 186, 183, 177, 176, 176, 176, 174, 174, 173, 171, 168, 165, 163, 162, 159, 158, 158, 158, 158, 158, 158, 158, 158, 158, 158, 158, 158, 158, 158, 158, 158, 158, 158, 158, 158, 158, 158, 158, 158, 158, 158, 158, 158, 158, 158, 158, 158, 158, 158, 158, 158, 158, 158]","[1010, 1010, 1010, 1010, 1010, 1010, 1010, 1010, 1010, 1007, 1003, 994, 990, 981, 976, 964, 955, 943, 923, 867, 825, 785, 742, 640, 583, 520, 454, 337, 281, 226, 175, 83, 36, 0, 0, 0, 0, 0, 0, 0, 0, 0, 0, 0, 0, 0, 1, 5, 5, 6, 8, 10, 11, 14, 18, 24, 28, 33, 34, 41, 42, 43, 45, 45, 46, 46, 46, 46, 46, 46, 46, 46, 46, 46, 46, 46, 46, 46, 46, 46, 46, 46, 46, 46, 46, 46, 46, 46, 46, 46, 46, 46, 46, 46, 46, 46, 46, 46]"
"Trust","Teilnehmer A hat Ihnen 2 Punkte übermittelt.","Payback","1","undefined","15","0","5","60","1080","201","5","1","990","8","legacy","[11, 21, 31, 41, 51, 61, 71, 81, 91, 101, 111, 121, 131, 141, 151, 161, 171, 181, 191, 201, 211, 221, 231, 241, 251, 261, 271, 281, 291, 301, 311, 321, 331, 341, 351, 361, 371, 381, 391, 401, 411, 421, 431, 441, 451, 461, 471, 481, 491, 501, 511, 521, 531, 541, 551, 561, 571, 581, 591, 601, 611, 621, 631, 641, 651, 661, 671, 681, 691, 701, 711, 721, 731, 741, 751, 761, 771, 781, 791, 801, 811, 821, 831, 841, 851, 861, 871, 881, 891, 901, 911, 921, 931, 941, 951, 961, 971, 981]","1312","1920","[960, 960, 960, 960, 960, 960, 960, 960, 960, 960, 960, 960, 960, 960, 963, 964, 965, 965, 967, 967, 967, 967, 967, 964, 955, 942, 909, 889, 870, 849, 808, 788, 767, 736, 688, 668, 648, 637, 616, 608, 602, 594, 582, 575, 566, 557, 539, 529, 519, 511, 496, 486, 475, 464, 437, 425, 405, 385, 354, 339, 325, 311, 283, 270, 258, 247, 227, 217, 208, 200, 187, 182, 173, 171, 166, 165, 165, 165, 165, 165, 165, 165, 165, 165, 165, 165, 165, 165, 165, 165, 165, 165, 165, 165, 165, 165, 165, 165]","[1010, 1010, 1010, 1010, 1010, 1010, 1010, 1010, 1010, 1010, 1010, 1010, 1010, 1009, 999, 991, 983, 972, 948, 938, 924, 907, 871, 847, 808, 772, 687, 639, 596, 548, 456, 408, 357, 305, 218, 185, 159, 145, 120, 112, 106, 100, 94, 91, 90, 86, 76, 74, 69, 67, 63, 60, 57, 56, 53, 52, 48, 48, 44, 44, 44, 44, 44, 44, 44, 44, 44, 44, 44, 44, 44, 44, 44, 44, 44, 44, 44, 44, 44, 44, 44, 44, 44, 44, 44, 44, 44, 44, 44, 44, 44, 44, 44, 44, 44, 44, 44, 44]"
"NoTrust","Teilnehmer A hat Ihnen keine 2 Punkte übermittelt.","Payback","1","undefined","16","0","5","60","1080","201","0","1","990","8","legacy","[11, 21, 31, 41, 51, 61, 71, 81, 91, 101, 111, 121, 131, 141, 151, 161, 171, 181, 191, 201, 211, 221, 231, 241, 251, 261, 271, 281, 291, 301, 311, 321, 331, 341, 351, 361, 371, 381, 391, 401, 411, 421, 431, 441, 451, 461, 471, 481, 491, 501, 511, 521, 531, 541, 551, 561, 571, 581, 591, 601, 611, 621, 631, 641, 651, 661, 671, 681, 691, 701, 711, 721, 731, 741, 751, 761, 771, 781, 791, 801, 811, 821, 831, 841, 851, 861, 871, 881, 891, 901, 911, 921, 931, 941, 951, 961, 971, 981]","1312","1920","[960, 960, 960, 960, 960, 960, 960, 960, 960, 960, 960, 960, 960, 960, 963, 964, 965, 965, 967, 967, 967, 967, 967, 964, 955, 942, 909, 889, 870, 849, 808, 788, 767, 736, 688, 668, 648, 637, 616, 608, 602, 594, 582, 575, 566, 557, 539, 529, 519, 511, 496, 486, 475, 464, 437, 425, 405, 385, 354, 339, 325, 311, 283, 270, 258, 247, 227, 217, 208, 200, 187, 182, 173, 171, 166, 165, 165, 165, 165, 165, 165, 165, 165, 165, 165, 165, 165, 165, 165, 165, 165, 165, 165, 165, 165, 165, 165, 165]","[1010, 1010, 1010, 1010, 1010, 1010, 1010, 1010, 1010, 1010, 1010, 1010, 1010, 1009, 999, 991, 983, 972, 948, 938, 924, 907, 871, 847, 808, 772, 687, 639, 596, 548, 456, 408, 357, 305, 218, 185, 159, 145, 120, 112, 106, 100, 94, 91, 90, 86, 76, 74, 69, 67, 63, 60, 57, 56, 53, 52, 48, 48, 44, 44, 44, 44, 44, 44, 44, 44, 44, 44, 44, 44, 44, 44, 44, 44, 44, 44, 44, 44, 44, 44, 44, 44, 44, 44, 44, 44, 44, 44, 44, 44, 44, 44, 44, 44, 44, 44, 44, 44]"
"Trust","Teilnehmer A hat Ihnen 2 Punkte übermittelt.","Payback","1","undefined","17","0","5","60","1080","271","5","1","990","8","legacy","[11, 21, 31, 41, 51, 61, 71, 81, 91, 101, 111, 121, 131, 141, 151, 161, 171, 181, 191, 201, 211, 221, 231, 241, 251, 261, 271, 281, 291, 301, 311, 321, 331, 341, 351, 361, 371, 381, 391, 401, 411, 421, 431, 441, 451, 461, 471, 481, 491, 501, 511, 521, 531, 541, 551, 561, 571, 581, 591, 601, 611, 621, 631, 641, 651, 661, 671, 681, 691, 701, 711, 721, 731, 741, 751, 761, 771, 781, 791, 801, 811, 821, 831, 841, 851, 861, 871, 881, 891, 901, 911, 921, 931, 941, 951, 961, 971, 981]","1312","1920","[960, 960, 960, 960, 960, 960, 960, 960, 960, 960, 960, 960, 960, 960, 960, 960, 960, 961, 965, 965, 966, 968, 971, 973, 974, 974, 974, 972, 970, 963, 952, 940, 932, 924, 897, 880, 859, 836, 791, 764, 735, 710, 651, 626, 596, 562, 496, 464, 426, 393, 323, 288, 262, 232, 203, 192, 185, 180, 173, 170, 168, 166, 163, 161, 159, 157, 153, 153, 151, 150, 148, 148, 148, 148, 144, 143, 141, 141, 140, 140, 139, 139, 139, 139, 139, 139, 139, 139, 139, 139, 139, 139, 139, 139, 139, 139, 139, 139]","[1010, 1010, 1010, 1010, 1010, 1010, 1010, 1010, 1010, 1010, 1010, 1010, 1010, 1010, 1010, 1010, 1010, 1009, 1004, 1001, 998, 995, 982, 974, 966, 955, 933, 916, 900, 883, 841, 815, 789, 761, 693, 656, 612, 574, 490, 441, 389, 338, 226, 169, 110, 50, 0, 0, 0, 0, 0, 0, 0, 0, 0, 0, 0, 0, 2, 5, 9, 15, 27, 31, 37, 40, 45, 46, 48, 49, 50, 50, 50, 50, 53, 53, 54, 55, 60, 60, 62, 63, 64, 65, 65, 66, 66, 66, 67, 67, 67, 67, 67, 67, 67, 67, 67, 67]"
"Promise","Wie oft werden Sie die Hälfte zurückgeben?","Promise","1","undefined","17","0","6","60","1080","191","5","1","1112","8","legacy","[11, 21, 31, 41, 51, 61, 71, 81, 91, 101, 111, 121, 131, 141, 151, 161, 171, 181, 191, 201, 211, 221, 231, 241, 251, 261, 271, 281, 291, 301, 311, 321, 331, 341, 351, 361, 371, 381, 391, 401, 411, 421, 431, 441, 451, 461, 471, 481, 491, 501, 511, 521, 531, 541, 551, 561, 571, 581, 591, 601, 611, 621, 631, 641, 651, 661, 671, 681, 691, 701, 711, 721, 731, 741, 751, 761, 771, 781, 791, 801, 811, 821, 831, 841, 851, 861, 871, 881, 891, 901, 911, 921, 931, 941, 951, 961, 971, 981, 991, 1001, 1011, 1021, 1031, 1041, 1051, 1061, 1071, 1081, 1091, 1101, 1111]","1312","1920","[960, 960, 960, 960, 960, 960, 960, 960, 958, 958, 956, 953, 951, 949, 944, 931, 924, 913, 904, 863, 835, 807, 781, 718, 689, 647, 617, 552, 532, 509, 487, 461, 451, 439, 429, 415, 411, 410, 410, 410, 408, 394, 374, 314, 287, 255, 232, 171, 140, 113, 92, 60, 51, 42, 39, 30, 28, 25, 25, 17, 15, 11, 8, 5, 5, 4, 4, 4, 4, 4, 4, 4, 6, 11, 13, 22, 27, 35, 41, 60, 68, 75, 84, 95, 98, 101, 102, 103, 104, 104, 104, 104, 104, 104, 104, 104, 104, 104, 104, 104, 104, 103, 103, 103, 103, 102, 102, 102, 102, 102, 102]","[1010, 1010, 1010, 1010, 1010, 1010, 1010, 1010, 1008, 1008, 1004, 1001, 997, 994, 986, 972, 964, 950, 939, 901, 878, 857, 838, 784, 761, 731, 711, 663, 647, 631, 615, 597, 590, 582, 574, 563, 558, 550, 538, 493, 435, 377, 326, 242, 216, 188, 165, 114, 88, 66, 46, 12, 0, 0, 0, 0, 0, 0, 0, 0, 0, 0, 0, 0, 0, 0, 0, 0, 0, 0, 0, 3, 7, 13, 15, 24, 29, 35, 40, 55, 60, 66, 71, 78, 81, 82, 82, 83, 84, 84, 84, 84, 84, 84, 84, 84, 84, 84, 84, 84, 84, 84, 84, 84, 84, 84, 84, 84, 84, 84, 84]"
"Trust","Teilnehmer A hat Ihnen 2 Punkte übermittelt.","Payback","1","undefined","18","0","6","60","1080","221","5","1","996","8","legacy","[11, 21, 31, 41, 51, 61, 71, 81, 91, 101, 111, 121, 131, 141, 151, 161, 171, 181, 191, 201, 211, 221, 231, 241, 251, 261, 271, 281, 291, 301, 311, 321, 331, 341, 351, 361, 371, 381, 391, 401, 411, 421, 431, 441, 451, 461, 471, 481, 491, 501, 511, 521, 531, 541, 551, 561, 571, 581, 591, 601, 611, 621, 631, 641, 651, 661, 671, 681, 691, 701, 711, 721, 731, 741, 751, 761, 771, 781, 791, 801, 811, 821, 831, 841, 851, 861, 871, 881, 891, 901, 911, 921, 931, 941, 951, 961, 971, 981, 991]","1312","1920","[960, 960, 960, 960, 960, 960, 960, 960, 960, 960, 960, 960, 960, 960, 957, 954, 950, 942, 939, 933, 925, 901, 880, 857, 829, 770, 741, 704, 670, 600, 564, 530, 497, 424, 389, 367, 344, 315, 309, 302, 299, 297, 295, 295, 295, 295, 293, 293, 292, 290, 290, 289, 289, 288, 288, 288, 286, 285, 281, 277, 270, 249, 237, 227, 213, 190, 182, 176, 170, 164, 160, 159, 157, 154, 153, 152, 152, 151, 150, 150, 149, 149, 149, 149, 149, 149, 149, 149, 149, 149, 149, 149, 149, 149, 149, 149, 149, 149, 149]","[1010, 1010, 1010, 1010, 1010, 1010, 1010, 1010, 1010, 1010, 1010, 1010, 1010, 1007, 1003, 997, 991, 979, 975, 969, 957, 928, 902, 873, 844, 765, 726, 683, 643, 563, 523, 483, 446, 373, 338, 314, 288, 250, 240, 234, 230, 228, 228, 228, 228, 228, 228, 228, 228, 228, 228, 227, 226, 225, 224, 222, 218, 212, 208, 202, 193, 174, 165, 154, 142, 119, 109, 100, 91, 79, 73, 69, 66, 62, 61, 60, 60, 59, 59, 59, 59, 59, 59, 59, 59, 59, 59, 59, 59, 59, 59, 59, 59, 59, 59, 59, 59, 59, 59]"
"Trust","Teilnehmer A hat Ihnen 2 Punkte übermittelt.","Payback","1","undefined","19","0","6","60","1080","221","5","1","1452","8","legacy","[11, 21, 31, 41, 51, 61, 71, 81, 91, 101, 111, 121, 131, 141, 151, 161, 171, 181, 191, 201, 211, 221, 231, 241, 251, 261, 271, 281, 291, 301, 311, 321, 331, 341, 351, 361, 371, 381, 391, 401, 411, 421, 431, 441, 451, 461, 471, 481, 491, 501, 511, 521, 531, 541, 551, 561, 571, 581, 591, 601, 611, 621, 631, 641, 651, 661, 671, 681, 691, 701, 711, 721, 731, 741, 751, 761, 771, 781, 791, 801, 811, 821, 831, 841, 851, 861, 871, 881, 891, 901, 911, 921, 931, 941, 951, 961, 971, 981, 991, 1001, 1011, 1021, 1031, 1041, 1051, 1061, 1071, 1081, 1091, 1101, 1111, 1121, 1131, 1141, 1151, 1161, 1171, 1181, 1191, 1201, 1211, 1221, 1231, 1241, 1251, 1261, 1271, 1281, 1291, 1301, 1311, 1321, 1331, 1341, 1351, 1361, 1371, 1381, 1391, 1401, 1411, 1421, 1431, 1441, 1451]","1312","1920","[960, 960, 960, 960, 960, 960, 960, 960, 960, 960, 960, 960, 959, 954, 954, 950, 947, 940, 936, 933, 929, 915, 902, 884, 857, 769, 714, 651, 589, 470, 422, 375, 330, 258, 235, 220, 209, 203, 201, 201, 201, 201, 201, 202, 202, 202, 202, 202, 201, 193, 190, 188, 185, 183, 183, 183, 183, 185, 186, 187, 187, 187, 183, 177, 171, 155, 150, 145, 140, 137, 137, 137, 136, 136, 135, 135, 135, 135, 135, 135, 135, 135, 135, 135, 135, 136, 136, 137, 138, 138, 139, 139, 139, 141, 141, 141, 141, 141, 141, 141, 141, 146, 148, 148, 151, 154, 156, 157, 161, 162, 163, 165, 165, 168, 169, 170, 171, 173, 174, 174, 176, 176, 177, 178, 178, 178, 180, 180, 180, 180, 180, 181, 181, 181, 181, 181, 181, 181, 181, 181, 181, 181, 181, 181, 181]","[1010, 1010, 1010, 1010, 1010, 1010, 1010, 1010, 1010, 1010, 1010, 1010, 1009, 1002, 999, 994, 987, 971, 959, 951, 941, 915, 898, 875, 845, 774, 743, 713, 680, 630, 607, 574, 544, 497, 479, 463, 452, 440, 434, 428, 421, 406, 397, 389, 379, 357, 345, 330, 317, 280, 267, 255, 244, 224, 219, 215, 212, 207, 205, 203, 201, 198, 196, 194, 191, 185, 183, 180, 176, 172, 169, 166, 164, 160, 157, 155, 154, 152, 150, 150, 149, 148, 147, 147, 145, 141, 141, 141, 140, 139, 138, 138, 138, 137, 137, 137, 137, 137, 137, 137, 137, 136, 135, 135, 132, 132, 132, 132, 130, 129, 129, 129, 129, 127, 127, 127, 126, 125, 125, 125, 124, 124, 124, 124, 123, 123, 123, 123, 123, 123, 123, 122, 122, 122, 122, 122, 122, 122, 122, 122, 122, 122, 122, 122, 122]"
"Trust","Teilnehmer A hat Ihnen 2 Punkte übermittelt.","Payback","1","undefined","20","0","6","60","1080","191","5","1","870","8","legacy","[11, 21, 31, 41, 51, 61, 71, 81, 91, 101, 111, 121, 131, 141, 151, 161, 171, 181, 191, 201, 211, 221, 231, 241, 251, 261, 271, 281, 291, 301, 311, 321, 331, 341, 351, 361, 371, 381, 391, 401, 411, 421, 431, 441, 451, 461, 471, 481, 491, 501, 511, 521, 531, 541, 551, 561, 571, 581, 591, 601, 611, 621, 631, 641, 651, 661, 671, 681, 691, 701, 711, 721, 731, 741, 751, 761, 771, 781, 791, 801, 811, 821, 831, 841, 851, 861]","1312","1920","[960, 960, 960, 960, 960, 960, 960, 960, 960, 960, 960, 960, 960, 960, 959, 958, 957, 953, 946, 942, 934, 925, 885, 855, 823, 787, 713, 682, 653, 624, 585, 569, 550, 531, 499, 484, 466, 451, 427, 416, 406, 397, 381, 371, 360, 353, 336, 327, 319, 310, 295, 287, 282, 278, 270, 267, 264, 260, 250, 243, 237, 229, 211, 204, 194, 186, 166, 154, 139, 130, 111, 105, 103, 103, 103, 103, 103, 103, 103, 103, 103, 103, 103, 103, 103, 103]","[1010, 1010, 1010, 1010, 1010, 1010, 1010, 1010, 1010, 1010, 1010, 1007, 1003, 1000, 989, 981, 970, 959, 931, 910, 887, 864, 788, 746, 707, 664, 576, 537, 505, 468, 414, 394, 373, 355, 324, 310, 296, 283, 261, 252, 244, 236, 223, 216, 210, 202, 186, 179, 170, 159, 141, 134, 129, 125, 119, 118, 116, 115, 114, 114, 114, 112, 111, 110, 109, 107, 104, 100, 95, 93, 88, 85, 83, 83, 83, 83, 83, 83, 83, 83, 83, 83, 83, 83, 83, 83]"
"Promise","Wie oft werden Sie die Hälfte zurückgeben?","Promise","1","undefined","20","0","7","60","1080","221","5","1","1648","8","legacy","[11, 21, 31, 41, 51, 61, 71, 81, 91, 101, 111, 121, 131, 141, 151, 161, 171, 181, 191, 201, 211, 221, 231, 241, 251, 261, 271, 281, 291, 301, 311, 321, 331, 341, 351, 361, 371, 381, 391, 401, 411, 421, 431, 441, 451, 461, 471, 481, 491, 501, 511, 521, 531, 541, 551, 561, 571, 581, 591, 601, 611, 621, 631, 641, 651, 661, 671, 681, 691, 701, 711, 721, 731, 741, 751, 761, 771, 781, 791, 801, 811, 821, 831, 841, 851, 861, 871, 881, 891, 901, 911, 921, 931, 941, 951, 961, 971, 981, 991, 1001, 1011, 1021, 1031, 1041, 1051, 1061, 1071, 1081, 1091, 1101, 1111, 1121, 1131, 1141, 1151, 1161, 1171, 1181, 1191, 1201, 1211, 1221, 1231, 1241, 1251, 1261, 1271, 1281, 1291, 1301, 1311, 1321, 1331, 1341, 1351, 1361, 1371, 1381, 1391, 1401, 1411, 1421, 1431, 1441, 1451, 1461, 1471, 1481, 1491, 1501, 1511, 1521, 1531, 1541, 1551, 1561, 1571, 1581, 1591, 1601, 1611, 1621, 1631, 1641]","1312","1920","[960, 960, 960, 961, 962, 962, 962, 962, 962, 962, 962, 962, 962, 962, 962, 962, 962, 961, 960, 958, 957, 953, 952, 940, 927, 913, 892, 838, 807, 783, 745, 678, 649, 628, 610, 567, 542, 520, 488, 406, 355, 299, 246, 158, 123, 101, 88, 73, 71, 71, 71, 71, 71, 71, 71, 70, 70, 70, 72, 75, 76, 78, 79, 80, 84, 87, 92, 97, 102, 105, 107, 111, 113, 116, 116, 119, 119, 119, 119, 121, 124, 125, 128, 131, 132, 135, 136, 138, 139, 139, 140, 141, 142, 142, 142, 143, 143, 143, 143, 144, 144, 144, 144, 144, 144, 144, 144, 144, 144, 144, 144, 145, 147, 149, 149, 152, 153, 153, 153, 153, 153, 153, 155, 155, 155, 156, 156, 158, 158, 158, 158, 158, 158, 158, 158, 158, 158, 158, 158, 158, 158, 158, 158, 158, 158, 158, 158, 159, 159, 159, 159, 159, 159, 159, 159, 159, 159, 159, 159, 159, 159, 159, 159, 159]","[1010, 1010, 1010, 1010, 1010, 1010, 1010, 1007, 1005, 1001, 997, 983, 977, 973, 971, 966, 963, 960, 957, 947, 942, 933, 929, 902, 877, 855, 822, 729, 680, 633, 586, 476, 424, 370, 317, 195, 138, 87, 35, 0, 0, 0, 0, 0, 0, 0, 0, 0, 0, 0, 0, 0, 0, 0, 0, 0, 3, 10, 17, 35, 44, 52, 57, 67, 73, 76, 80, 82, 84, 84, 84, 84, 84, 85, 85, 85, 85, 85, 85, 85, 85, 85, 85, 85, 85, 84, 83, 83, 82, 81, 81, 80, 80, 79, 78, 78, 78, 77, 77, 77, 77, 77, 77, 77, 77, 77, 77, 77, 77, 77, 77, 77, 76, 74, 74, 74, 73, 73, 73, 73, 73, 73, 71, 71, 71, 70, 70, 68, 68, 68, 68, 68, 68, 68, 68, 68, 68, 68, 68, 68, 68, 68, 68, 68, 68, 68, 68, 68, 68, 68, 68, 68, 68, 68, 68, 68, 68, 68, 68, 68, 68, 68, 68, 68]"
"Trust","Teilnehmer A hat Ihnen 2 Punkte übermittelt.","Payback","1","undefined","21","0","7","60","1080","271","5","1","1142","8","legacy","[11, 21, 31, 41, 51, 61, 71, 81, 91, 101, 111, 121, 131, 141, 151, 161, 171, 181, 191, 201, 211, 221, 231, 241, 251, 261, 271, 281, 291, 301, 311, 321, 331, 341, 351, 361, 371, 381, 391, 401, 411, 421, 431, 441, 451, 461, 471, 481, 491, 501, 511, 521, 531, 541, 551, 561, 571, 581, 591, 601, 611, 621, 631, 641, 651, 661, 671, 681, 691, 701, 711, 721, 731, 741, 751, 761, 771, 781, 791, 801, 811, 821, 831, 841, 851, 861, 871, 881, 891, 901, 911, 921, 931, 941, 951, 961, 971, 981, 991, 1001, 1011, 1021, 1031, 1041, 1051, 1061, 1071, 1081, 1091, 1101, 1111, 1121, 1131, 1141]","1312","1920","[960, 960, 960, 960, 960, 960, 960, 960, 960, 960, 961, 961, 961, 961, 961, 959, 956, 955, 951, 949, 947, 944, 936, 931, 926, 921, 911, 908, 907, 904, 899, 889, 877, 856, 789, 736, 686, 629, 553, 533, 518, 509, 494, 487, 483, 480, 472, 470, 463, 453, 429, 408, 382, 357, 308, 288, 266, 238, 204, 193, 181, 170, 152, 145, 140, 137, 134, 133, 133, 133, 132, 132, 132, 132, 132, 132, 132, 132, 132, 132, 132, 132, 131, 130, 130, 130, 130, 130, 130, 130, 130, 130, 130, 130, 131, 131, 133, 134, 135, 135, 138, 138, 138, 138, 138, 138, 138, 138, 138, 138, 138, 138, 138, 139]","[1010, 1010, 1010, 1010, 1010, 1010, 1010, 1010, 1010, 1010, 1010, 1010, 1010, 1010, 1005, 1002, 996, 993, 988, 983, 981, 976, 965, 959, 953, 944, 929, 919, 907, 893, 843, 802, 752, 694, 542, 449, 374, 296, 208, 184, 172, 166, 154, 148, 146, 145, 142, 142, 140, 137, 128, 118, 107, 94, 73, 66, 60, 52, 44, 42, 41, 38, 35, 34, 34, 33, 33, 33, 33, 33, 33, 33, 33, 33, 33, 33, 33, 33, 33, 33, 33, 33, 33, 33, 33, 33, 35, 35, 38, 39, 44, 44, 45, 45, 49, 50, 53, 57, 60, 62, 65, 66, 67, 67, 67, 67, 67, 67, 67, 67, 67, 67, 67, 67]"
"Trust","Teilnehmer A hat Ihnen 2 Punkte übermittelt.","Payback","1","undefined","22","0","7","60","1080","171","5","1","784","8","legacy","[11, 21, 31, 41, 51, 61, 71, 81, 91, 101, 111, 121, 131, 141, 151, 161, 171, 181, 191, 201, 211, 221, 231, 241, 251, 261, 271, 281, 291, 301, 311, 321, 331, 341, 351, 361, 371, 381, 391, 401, 411, 421, 431, 441, 451, 461, 471, 481, 491, 501, 511, 521, 531, 541, 551, 561, 571, 581, 591, 601, 611, 621, 631, 641, 651, 661, 671, 681, 691, 701, 711, 721, 731, 741, 751, 761, 771, 781]","1312","1920","[960, 960, 960, 960, 960, 960, 960, 960, 960, 958, 957, 952, 950, 948, 946, 941, 938, 935, 928, 910, 892, 873, 842, 764, 712, 650, 580, 460, 393, 340, 299, 235, 224, 215, 209, 198, 193, 188, 184, 181, 180, 179, 179, 179, 179, 179, 179, 179, 179, 179, 179, 179, 179, 179, 179, 179, 179, 179, 179, 179, 179, 179, 179, 179, 179, 179, 179, 179, 179, 179, 179, 179, 179, 179, 179, 179, 179, 179]","[1010, 1010, 1010, 1010, 1010, 1010, 1010, 1010, 1010, 1009, 1006, 994, 983, 975, 968, 949, 937, 919, 894, 820, 772, 729, 682, 581, 527, 472, 411, 317, 268, 232, 202, 149, 136, 122, 112, 92, 83, 76, 68, 61, 59, 57, 56, 53, 52, 51, 51, 50, 50, 50, 50, 50, 50, 50, 50, 50, 50, 50, 50, 50, 50, 50, 50, 50, 50, 50, 50, 50, 50, 50, 50, 50, 50, 50, 50, 50, 50, 50]"
"Trust","Teilnehmer A hat Ihnen 2 Punkte übermittelt.","Payback","1","undefined","23","0","7","60","1080","151","5","1","1414","8","legacy","[11, 21, 31, 41, 51, 61, 71, 81, 91, 101, 111, 121, 131, 141, 151, 161, 171, 181, 191, 201, 211, 221, 231, 241, 251, 261, 271, 281, 291, 301, 311, 321, 331, 341, 351, 361, 371, 381, 391, 401, 411, 421, 431, 441, 451, 461, 471, 481, 491, 501, 511, 521, 531, 541, 551, 561, 571, 581, 591, 601, 611, 621, 631, 641, 651, 661, 671, 681, 691, 701, 711, 721, 731, 741, 751, 761, 771, 781, 791, 801, 811, 821, 831, 841, 851, 861, 871, 881, 891, 901, 911, 921, 931, 941, 951, 961, 971, 981, 991, 1001, 1011, 1021, 1031, 1041, 1051, 1061, 1071, 1081, 1091, 1101, 1111, 1121, 1131, 1141, 1151, 1161, 1171, 1181, 1191, 1201, 1211, 1221, 1231, 1241, 1251, 1261, 1271, 1281, 1291, 1301, 1311, 1321, 1331, 1341, 1351, 1361, 1371, 1381, 1391, 1401, 1411]","1312","1920","[960, 960, 960, 960, 960, 959, 951, 945, 940, 935, 927, 923, 922, 919, 917, 916, 915, 910, 900, 888, 874, 846, 809, 786, 757, 734, 690, 669, 652, 630, 592, 572, 551, 535, 508, 498, 490, 482, 471, 466, 465, 460, 450, 444, 440, 433, 419, 411, 404, 397, 381, 370, 360, 352, 334, 324, 313, 303, 275, 263, 251, 241, 217, 210, 202, 200, 198, 197, 197, 196, 194, 194, 194, 193, 192, 192, 192, 192, 192, 192, 194, 194, 194, 194, 194, 194, 195, 195, 195, 195, 195, 195, 195, 195, 195, 195, 195, 195, 195, 195, 195, 195, 195, 195, 195, 195, 195, 195, 195, 195, 195, 195, 195, 195, 195, 195, 195, 195, 195, 195, 195, 195, 195, 195, 195, 195, 195, 195, 195, 195, 195, 195, 195, 195, 195, 195, 195, 195, 195, 195, 195]","[1010, 1010, 1010, 1010, 1010, 1010, 1000, 991, 983, 975, 963, 955, 952, 946, 936, 930, 922, 909, 875, 846, 814, 768, 680, 626, 577, 538, 464, 434, 406, 375, 329, 301, 273, 248, 211, 199, 188, 181, 169, 166, 164, 161, 158, 155, 152, 149, 146, 143, 142, 142, 141, 139, 138, 138, 139, 139, 139, 139, 139, 139, 139, 139, 137, 135, 131, 127, 118, 114, 110, 104, 95, 91, 88, 84, 79, 76, 74, 73, 69, 68, 66, 65, 63, 63, 62, 62, 62, 62, 62, 62, 62, 62, 62, 62, 62, 62, 62, 62, 62, 62, 62, 62, 62, 62, 62, 62, 62, 62, 62, 62, 62, 62, 62, 62, 62, 62, 62, 62, 62, 62, 62, 62, 62, 62, 62, 62, 62, 62, 62, 62, 62, 62, 62, 62, 62, 62, 62, 62, 62, 62, 62]"
