Condition,PromiseStage,Stage,accuracy,avg_rt,count_decision_sequence,count_loop1,count_trial_sequence,font_size,height,init_time,payoff,response,rt,subject_nr,synth_backend,tTrajectory,time_experiment,width,xTrajectory,yTrajectory
"Promise","Wie oft werden Sie die Hälfte zurückgeben?","Promise","0","undefined","NA","0","0","60","1080","161","NA","2","1863","0","legacy","[11, 21, 31, 41, 51, 61, 71, 81, 91, 101, 111, 121, 131, 141, 151, 161, 171, 181, 191, 201, 211, 221, 231, 241, 251, 261, 271, 281, 291, 301, 311, 321, 331, 341, 351, 361, 371, 381, 391, 401, 411, 421, 431, 441, 451, 461, 471, 481, 491, 501, 511, 521, 531, 541, 551, 561, 571, 581, 591, 601, 611, 621, 631, 641, 651, 661, 671, 681, 691, 701, 711, 721, 731, 741, 751, 761, 771, 781, 791, 801, 811, 821, 831, 841, 851, 861, 871, 881, 891, 901, 911, 921, 931, 941, 951, 961, 971, 981, 991, 1001, 1011, 1021, 1031, 1041, 1051, 1061, 1071, 1081, 1091, 1101, 1111, 1121, 1131, 1141, 1151, 1161, 1171, 1181, 1191, 1201, 1211, 1221, 1231, 1241, 1251, 1261, 1271, 1281, 1291, 1301, 1311, 1321, 1331, 1341, 1351, 1361, 1371, 1381, 1391, 1401, 1411, 1421, 1431, 1441, 1451, 1461, 1471, 1481, 1491, 1501, 1511, 1521, 1531, 1541, 1551, 1561, 1571, 1581, 1591, 1601, 1611, 1621, 1631, 1641, 1651, 1661, 1671, 1681, 1691, 1701, 1711, 1721, 1731, 1741, 1751, 1761, 1771, 1781, 1791, 1801, 1811, 1821, 1831, 1841, 1851, 1861]","1100","1920","[960, 960, 960, 960, 960, 960, 960, 960, 960, 960, 960, 960, 960, 960, 957, 921, 896, 863, 829, 732, 687, 640, 599, 530, 500, 480, 456, 429, 424, 417, 409, 392, 387, 379, 371, 356, 348, 342, 335, 311, 298, 290, 287, 287, 287, 287, 287, 287, 287, 287, 287, 276, 266, 253, 234, 188, 168, 153, 144, 132, 128, 125, 123, 118, 117, 117, 117, 117, 117, 117, 117, 117, 119, 120, 122, 130, 134, 140, 145, 156, 161, 165, 169, 174, 178, 180, 183, 189, 190, 191, 191, 193, 193, 195, 195, 195, 195, 195, 195, 195, 195, 195, 195, 195, 195, 195, 195, 195, 195, 195, 195, 195, 195, 195, 195, 195, 195, 195, 195, 195, 195, 195, 195, 195, 195, 195, 195, 195, 195, 195, 195, 195, 195, 195, 195, 195, 195, 195, 195, 195, 195, 195, 195, 195, 195, 195, 195, 195, 195, 195, 195, 195, 195, 195, 195, 195, 195, 195, 195, 195, 195, 195, 195, 195, 195, 195, 195, 195, 195, 195, 195, 195, 195, 195, 195, 195, 195, 195, 195, 195, 195, 195, 195, 195, 195, 195]","[1010, 1010, 1010, 1010, 1010, 1010, 1010, 1010, 1010, 1010, 1010, 1010, 1002, 985, 953, 834, 775, 710, 647, 524, 470, 417, 376, 299, 269, 246, 221, 193, 187, 178, 169, 152, 145, 139, 134, 124, 121, 116, 111, 101, 99, 97, 96, 96, 96, 96, 96, 96, 96, 96, 96, 92, 86, 81, 73, 54, 47, 41, 36, 30, 26, 22, 14, 4, 3, 3, 2, 2, 2, 2, 2, 2, 2, 2, 2, 9, 13, 20, 27, 39, 45, 50, 56, 66, 72, 75, 80, 89, 90, 91, 92, 95, 95, 97, 97, 97, 97, 97, 97, 97, 97, 97, 97, 97, 97, 97, 97, 97, 97, 97, 97, 97, 97, 97, 97, 97, 97, 97, 97, 97, 97, 97, 97, 97, 97, 97, 97, 97, 97, 97, 97, 97, 97, 97, 97, 97, 97, 97, 97, 97, 97, 97, 97, 97, 97, 97, 97, 97, 97, 97, 97, 97, 97, 97, 97, 97, 97, 97, 97, 97, 97, 97, 97, 97, 97, 97, 97, 97, 97, 97, 97, 97, 97, 97, 97, 97, 97, 97, 97, 97, 97, 97, 97, 97, 97, 97]"
Cond,DecisionB,Stage,accuracy,avg_rt,count_decision_sequence,count_loop1,count_trial_sequence,font_size,height,init_time,payoff,response,rt,subject_nr,synth_backend,tTrajectory,time_experiment,width,xTrajectory,yTrajectory
"NoTrust","Teilnehmer A hat Ihnen keine 2 Punkte übermittelt.","Payback","0","undefined","0","0","0","60","1080","161","0","2","1863","0","legacy","[11, 21, 31, 41, 51, 61, 71, 81, 91, 101, 111, 121, 131, 141, 151, 161, 171, 181, 191, 201, 211, 221, 231, 241, 251, 261, 271, 281, 291, 301, 311, 321, 331, 341, 351, 361, 371, 381, 391, 401, 411, 421, 431, 441, 451, 461, 471, 481, 491, 501, 511, 521, 531, 541, 551, 561, 571, 581, 591, 601, 611, 621, 631, 641, 651, 661, 671, 681, 691, 701, 711, 721, 731, 741, 751, 761, 771, 781, 791, 801, 811, 821, 831, 841, 851, 861, 871, 881, 891, 901, 911, 921, 931, 941, 951, 961, 971, 981, 991, 1001, 1011, 1021, 1031, 1041, 1051, 1061, 1071, 1081, 1091, 1101, 1111, 1121, 1131, 1141, 1151, 1161, 1171, 1181, 1191, 1201, 1211, 1221, 1231, 1241, 1251, 1261, 1271, 1281, 1291, 1301, 1311, 1321, 1331, 1341, 1351, 1361, 1371, 1381, 1391, 1401, 1411, 1421, 1431, 1441, 1451, 1461, 1471, 1481, 1491, 1501, 1511, 1521, 1531, 1541, 1551, 1561, 1571, 1581, 1591, 1601, 1611, 1621, 1631, 1641, 1651, 1661, 1671, 1681, 1691, 1701, 1711, 1721, 1731, 1741, 1751, 1761, 1771, 1781, 1791, 1801, 1811, 1821, 1831, 1841, 1851, 1861]","1100","1920","[960, 960, 960, 960, 960, 960, 960, 960, 960, 960, 960, 960, 960, 960, 957, 921, 896, 863, 829, 732, 687, 640, 599, 530, 500, 480, 456, 429, 424, 417, 409, 392, 387, 379, 371, 356, 348, 342, 335, 311, 298, 290, 287, 287, 287, 287, 287, 287, 287, 287, 287, 276, 266, 253, 234, 188, 168, 153, 144, 132, 128, 125, 123, 118, 117, 117, 117, 117, 117, 117, 117, 117, 119, 120, 122, 130, 134, 140, 145, 156, 161, 165, 169, 174, 178, 180, 183, 189, 190, 191, 191, 193, 193, 195, 195, 195, 195, 195, 195, 195, 195, 195, 195, 195, 195, 195, 195, 195, 195, 195, 195, 195, 195, 195, 195, 195, 195, 195, 195, 195, 195, 195, 195, 195, 195, 195, 195, 195, 195, 195, 195, 195, 195, 195, 195, 195, 195, 195, 195, 195, 195, 195, 195, 195, 195, 195, 195, 195, 195, 195, 195, 195, 195, 195, 195, 195, 195, 195, 195, 195, 195, 195, 195, 195, 195, 195, 195, 195, 195, 195, 195, 195, 195, 195, 195, 195, 195, 195, 195, 195, 195, 195, 195, 195, 195, 195]","[1010, 1010, 1010, 1010, 1010, 1010, 1010, 1010, 1010, 1010, 1010, 1010, 1002, 985, 953, 834, 775, 710, 647, 524, 470, 417, 376, 299, 269, 246, 221, 193, 187, 178, 169, 152, 145, 139, 134, 124, 121, 116, 111, 101, 99, 97, 96, 96, 96, 96, 96, 96, 96, 96, 96, 92, 86, 81, 73, 54, 47, 41, 36, 30, 26, 22, 14, 4, 3, 3, 2, 2, 2, 2, 2, 2, 2, 2, 2, 9, 13, 20, 27, 39, 45, 50, 56, 66, 72, 75, 80, 89, 90, 91, 92, 95, 95, 97, 97, 97, 97, 97, 97, 97, 97, 97, 97, 97, 97, 97, 97, 97, 97, 97, 97, 97, 97, 97, 97, 97, 97, 97, 97, 97, 97, 97, 97, 97, 97, 97, 97, 97, 97, 97, 97, 97, 97, 97, 97, 97, 97, 97, 97, 97, 97, 97, 97, 97, 97, 97, 97, 97, 97, 97, 97, 97, 97, 97, 97, 97, 97, 97, 97, 97, 97, 97, 97, 97, 97, 97, 97, 97, 97, 97, 97, 97, 97, 97, 97, 97, 97, 97, 97, 97, 97, 97, 97, 97, 97, 97]"
"Trust","Teilnehmer A hat Ihnen 2 Punkte übermittelt.","Payback","0","undefined","1","0","0","60","1080","661","10","2","1668","0","legacy","[11, 21, 31, 41, 51, 61, 71, 81, 91, 101, 111, 121, 131, 141, 151, 161, 171, 181, 191, 201, 211, 221, 231, 241, 251, 261, 271, 281, 291, 301, 311, 321, 331, 341, 351, 361, 371, 381, 391, 401, 411, 421, 431, 441, 451, 461, 471, 481, 491, 501, 511, 521, 531, 541, 551, 561, 571, 581, 591, 601, 611, 621, 631, 641, 651, 661, 671, 681, 691, 701, 711, 721, 731, 741, 751, 761, 771, 781, 791, 801, 811, 821, 831, 841, 851, 861, 871, 881, 891, 901, 911, 921, 931, 941, 951, 961, 971, 981, 991, 1001, 1011, 1021, 1031, 1041, 1051, 1061, 1071, 1081, 1091, 1101, 1111, 1121, 1131, 1141, 1151, 1161, 1171, 1181, 1191, 1201, 1211, 1221, 1231, 1241, 1251, 1261, 1271, 1281, 1291, 1301, 1311, 1321, 1331, 1341, 1351, 1361, 1371, 1381, 1391, 1401, 1411, 1421, 1431, 1441, 1451, 1461, 1471, 1481, 1491, 1501, 1511, 1521, 1531, 1541, 1551, 1561, 1571, 1581, 1591, 1601, 1611, 1621, 1631, 1641, 1651, 1661]","1100","1920","[960, 960, 960, 960, 960, 960, 960, 960, 960, 960, 960, 960, 960, 960, 960, 960, 960, 960, 960, 960, 960, 960, 960, 960, 960, 960, 960, 960, 960, 960, 960, 960, 960, 960, 960, 960, 960, 960, 960, 960, 960, 960, 960, 960, 960, 960, 960, 960, 960, 960, 960, 960, 960, 960, 960, 960, 960, 960, 960, 962, 962, 962, 961, 959, 957, 951, 948, 940, 934, 911, 901, 892, 878, 860, 847, 839, 832, 814, 806, 801, 795, 785, 779, 775, 773, 764, 759, 755, 752, 747, 744, 742, 741, 738, 738, 737, 735, 734, 734, 734, 734, 734, 734, 733, 733, 732, 731, 731, 731, 730, 729, 728, 727, 725, 723, 722, 719, 714, 710, 706, 703, 693, 687, 681, 675, 655, 641, 628, 613, 571, 551, 531, 507, 469, 449, 434, 414, 376, 351, 328, 309, 282, 271, 258, 252, 238, 235, 233, 231, 230, 230, 228, 226, 223, 221, 220, 219, 218, 218, 218, 218, 218, 218, 218, 218, 218]","[1010, 1010, 1010, 1010, 1010, 1010, 1010, 1010, 1010, 1010, 1010, 1010, 1010, 1010, 1010, 1010, 1010, 1010, 1010, 1010, 1010, 1010, 1010, 1010, 1010, 1010, 1010, 1010, 1010, 1010, 1010, 1010, 1010, 1010, 1010, 1010, 1010, 1010, 1010, 1010, 1010, 1010, 1010, 1010, 1010, 1010, 1010, 1010, 1010, 1010, 1010, 1010, 1010, 1010, 1010, 1010, 1010, 1010, 1010, 1010, 1000, 978, 966, 955, 944, 916, 899, 877, 855, 802, 776, 750, 721, 680, 653, 633, 610, 566, 550, 539, 525, 502, 489, 478, 467, 448, 438, 428, 422, 409, 403, 397, 391, 383, 380, 378, 375, 372, 371, 370, 370, 369, 369, 367, 367, 365, 364, 363, 362, 360, 358, 356, 355, 351, 349, 344, 342, 335, 331, 326, 323, 311, 305, 300, 295, 275, 262, 251, 237, 207, 193, 178, 165, 143, 131, 125, 116, 104, 96, 88, 83, 76, 73, 71, 71, 70, 69, 69, 69, 69, 69, 69, 67, 67, 67, 67, 67, 67, 67, 67, 67, 67, 67, 67, 67, 67]"
"Trust","Teilnehmer A hat Ihnen 2 Punkte übermittelt.","Payback","1","undefined","2","0","0","60","1080","241","5","1","802","0","legacy","[11, 21, 31, 41, 51, 61, 71, 81, 91, 101, 111, 121, 131, 141, 151, 161, 171, 181, 191, 201, 211, 221, 231, 241, 251, 261, 271, 281, 291, 301, 311, 321, 331, 341, 351, 361, 371, 381, 391, 401, 411, 421, 431, 441, 451, 461, 471, 481, 491, 501, 511, 521, 531, 541, 551, 561, 571, 581, 591, 601, 611, 621, 631, 641, 651, 661, 671, 681, 691, 701, 711, 721, 731, 741, 751, 761, 771, 781, 791, 801]","1100","1920","[960, 960, 960, 960, 960, 960, 960, 960, 960, 960, 960, 960, 960, 962, 970, 982, 1009, 1018, 1024, 1029, 1075, 1118, 1149, 1175, 1218, 1232, 1249, 1265, 1303, 1325, 1343, 1359, 1424, 1468, 1500, 1539, 1605, 1635, 1661, 1681, 1727, 1748, 1760, 1773, 1795, 1802, 1812, 1816, 1824, 1828, 1830, 1834, 1844, 1848, 1851, 1855, 1858, 1858, 1858, 1858, 1858, 1858, 1858, 1857, 1848, 1837, 1824, 1814, 1797, 1794, 1789, 1785, 1779, 1776, 1773, 1771, 1768, 1766, 1766, 1765]","[1010, 1010, 1010, 1010, 1010, 1010, 1010, 1010, 1010, 1010, 1010, 1010, 1009, 1006, 1003, 1000, 1000, 1003, 1004, 1004, 971, 952, 940, 930, 915, 911, 909, 906, 897, 891, 884, 876, 842, 814, 796, 773, 691, 631, 553, 479, 329, 265, 218, 181, 106, 66, 22, 0, 0, 0, 0, 0, 0, 0, 0, 0, 0, 0, 0, 0, 0, 0, 0, 0, 8, 22, 35, 44, 58, 60, 63, 63, 64, 67, 68, 68, 71, 71, 71, 71]"
"Promise","Wie oft werden Sie die Hälfte zurückgeben?","Promise","1","undefined","2","0","1","60","1080","81","5","1","800","0","legacy","[11, 21, 31, 41, 51, 61, 71, 81, 91, 101, 111, 121, 131, 141, 151, 161, 171, 181, 191, 201, 211, 221, 231, 241, 251, 261, 271, 281, 291, 301, 311, 321, 331, 341, 351, 361, 371, 381, 391, 401, 411, 421, 431, 441, 451, 461, 471, 481, 491, 501, 511, 521, 531, 541, 551, 561, 571, 581, 591, 601, 611, 621, 631, 641, 651, 661, 671, 681, 691, 701, 711, 721, 731, 741, 751, 761, 771, 781, 791]","1100","1920","[960, 960, 960, 961, 969, 983, 1003, 1079, 1119, 1170, 1222, 1342, 1394, 1430, 1456, 1487, 1501, 1508, 1518, 1531, 1537, 1545, 1553, 1565, 1573, 1579, 1585, 1603, 1611, 1619, 1622, 1624, 1624, 1626, 1626, 1628, 1628, 1629, 1629, 1629, 1629, 1629, 1629, 1629, 1629, 1629, 1629, 1629, 1629, 1629, 1630, 1631, 1633, 1634, 1634, 1634, 1634, 1634, 1634, 1634, 1634, 1634, 1634, 1636, 1636, 1637, 1638, 1640, 1642, 1643, 1644, 1645, 1646, 1646, 1646, 1647, 1647, 1647, 1647]","[1010, 1010, 1010, 1010, 1006, 995, 979, 918, 884, 840, 788, 640, 571, 518, 474, 405, 373, 350, 327, 280, 257, 235, 216, 191, 174, 163, 153, 121, 108, 94, 89, 88, 88, 87, 87, 86, 86, 85, 85, 85, 85, 85, 85, 85, 85, 85, 85, 85, 85, 85, 85, 84, 82, 82, 82, 81, 81, 81, 81, 81, 81, 81, 81, 81, 81, 80, 79, 79, 79, 79, 79, 79, 79, 79, 79, 79, 79, 78, 78]"
"Trust","Teilnehmer A hat Ihnen 2 Punkte übermittelt.","Payback","1","undefined","3","0","1","60","1080","101","5","1","654","0","legacy","[11, 21, 31, 41, 51, 61, 71, 81, 91, 101, 111, 121, 131, 141, 151, 161, 171, 181, 191, 201, 211, 221, 231, 241, 251, 261, 271, 281, 291, 301, 311, 321, 331, 341, 351, 361, 371, 381, 391, 401, 411, 421, 431, 441, 451, 461, 471, 481, 491, 501, 511, 521, 531, 541, 551, 561, 571, 581, 591, 601, 611, 621, 631, 641, 651]","1100","1920","[960, 960, 960, 960, 960, 960, 965, 972, 986, 1010, 1078, 1121, 1169, 1224, 1348, 1413, 1468, 1530, 1638, 1681, 1712, 1735, 1757, 1762, 1766, 1768, 1771, 1772, 1772, 1773, 1774, 1776, 1776, 1776, 1776, 1776, 1776, 1776, 1774, 1773, 1771, 1766, 1763, 1761, 1761, 1761, 1761, 1761, 1761, 1761, 1761, 1761, 1761, 1761, 1761, 1761, 1761, 1761, 1761, 1761, 1761, 1761, 1761, 1761, 1761]","[1010, 1010, 1010, 1010, 1010, 1008, 997, 984, 958, 924, 827, 773, 714, 652, 522, 457, 402, 347, 245, 202, 165, 139, 109, 98, 89, 86, 70, 66, 63, 59, 51, 47, 45, 42, 39, 39, 39, 39, 39, 39, 39, 40, 40, 42, 42, 42, 42, 42, 42, 42, 42, 42, 42, 42, 42, 42, 42, 42, 42, 42, 42, 42, 42, 42, 42]"
"Trust","Teilnehmer A hat Ihnen 2 Punkte übermittelt.","Payback","0","undefined","4","0","1","60","1080","261","10","2","612","0","legacy","[11, 21, 31, 41, 51, 61, 71, 81, 91, 101, 111, 121, 131, 141, 151, 161, 171, 181, 191, 201, 211, 221, 231, 241, 251, 261, 271, 281, 291, 301, 311, 321, 331, 341, 351, 361, 371, 381, 391, 401, 411, 421, 431, 441, 451, 461, 471, 481, 491, 501, 511, 521, 531, 541, 551, 561, 571, 581, 591, 601, 611]","1100","1920","[960, 960, 960, 960, 960, 960, 960, 960, 960, 960, 960, 960, 960, 960, 960, 960, 960, 960, 960, 960, 960, 960, 957, 954, 947, 930, 909, 882, 842, 751, 694, 639, 587, 503, 465, 436, 406, 359, 331, 308, 279, 225, 202, 188, 177, 157, 148, 145, 143, 142, 142, 142, 142, 142, 142, 142, 142, 142, 142, 142, 142]","[1010, 1010, 1010, 1010, 1010, 1010, 1010, 1010, 1010, 1010, 1010, 1010, 1010, 1010, 1010, 1010, 1010, 1010, 1010, 1010, 1010, 1009, 998, 981, 948, 850, 786, 716, 640, 483, 406, 325, 253, 139, 99, 59, 30, 0, 0, 0, 0, 0, 0, 0, 0, 0, 0, 0, 0, 0, 0, 0, 0, 0, 0, 0, 0, 0, 0, 0, 0]"
"Trust","Teilnehmer A hat Ihnen 2 Punkte übermittelt.","Payback","1","undefined","5","0","1","60","1080","151","5","1","1045","0","legacy","[11, 21, 31, 41, 51, 61, 71, 81, 91, 101, 111, 121, 131, 141, 151, 161, 171, 181, 191, 201, 211, 221, 231, 241, 251, 261, 271, 281, 291, 301, 311, 321, 331, 341, 351, 361, 371, 381, 391, 401, 411, 421, 431, 441, 451, 461, 471, 481, 491, 501, 511, 521, 531, 541, 551, 561, 571, 581, 591, 601, 611, 621, 631, 641, 651, 661, 671, 681, 691, 701, 711, 721, 731, 741, 751, 761, 771, 781, 791, 801, 811, 821, 831, 841, 851, 861, 871, 881, 891, 901, 911, 921, 931, 941, 951, 961, 971, 981, 991, 1001, 1011, 1021, 1031, 1041]","1100","1920","[960, 960, 960, 960, 960, 960, 960, 960, 960, 960, 975, 983, 996, 1006, 1032, 1052, 1075, 1097, 1150, 1173, 1203, 1231, 1282, 1297, 1317, 1334, 1367, 1377, 1386, 1396, 1408, 1413, 1418, 1423, 1434, 1439, 1444, 1450, 1462, 1466, 1469, 1474, 1484, 1488, 1491, 1495, 1503, 1505, 1509, 1511, 1519, 1523, 1525, 1529, 1535, 1540, 1544, 1548, 1554, 1557, 1562, 1567, 1577, 1582, 1589, 1594, 1607, 1610, 1618, 1623, 1635, 1640, 1642, 1645, 1649, 1651, 1654, 1655, 1656, 1657, 1660, 1660, 1660, 1662, 1663, 1663, 1663, 1663, 1663, 1663, 1663, 1663, 1663, 1663, 1663, 1663, 1663, 1663, 1663, 1663, 1663, 1663, 1663, 1663]","[1010, 1010, 1010, 1010, 1010, 1010, 1010, 1010, 1009, 1003, 979, 969, 957, 949, 928, 916, 896, 883, 845, 825, 798, 764, 671, 629, 583, 543, 469, 443, 422, 396, 370, 360, 351, 341, 321, 312, 301, 289, 264, 253, 244, 234, 217, 209, 203, 197, 183, 179, 173, 169, 159, 154, 151, 146, 139, 134, 129, 124, 118, 115, 111, 106, 97, 93, 89, 85, 77, 74, 69, 65, 59, 56, 55, 53, 51, 50, 48, 48, 48, 47, 46, 46, 46, 46, 45, 45, 45, 45, 45, 45, 45, 45, 45, 45, 45, 45, 45, 45, 45, 45, 45, 45, 45, 45]"
"Promise","Wie oft werden Sie die Hälfte zurückgeben?","Promise","0","undefined","5","0","2","60","1080","271","5","2","1032","0","legacy","[11, 21, 31, 41, 51, 61, 71, 81, 91, 101, 111, 121, 131, 141, 151, 161, 171, 181, 191, 201, 211, 221, 231, 241, 251, 261, 271, 281, 291, 301, 311, 321, 331, 341, 351, 361, 371, 381, 391, 401, 411, 421, 431, 441, 451, 461, 471, 481, 491, 501, 511, 521, 531, 541, 551, 561, 571, 581, 591, 601, 611, 621, 631, 641, 651, 661, 671, 681, 691, 701, 711, 721, 731, 741, 751, 761, 771, 781, 791, 801, 811, 821, 831, 841, 851, 861, 871, 881, 891, 901, 911, 921, 931, 941, 951, 961, 971, 981, 991, 1001, 1011, 1021, 1031]","1100","1920","[960, 960, 960, 960, 960, 960, 960, 960, 960, 960, 960, 960, 960, 960, 960, 960, 960, 960, 960, 957, 953, 948, 942, 925, 919, 909, 899, 863, 844, 825, 801, 762, 746, 723, 704, 658, 627, 598, 570, 521, 500, 483, 461, 418, 393, 370, 355, 317, 301, 285, 269, 238, 229, 222, 213, 194, 183, 171, 159, 143, 136, 130, 125, 116, 114, 109, 106, 101, 99, 96, 96, 94, 94, 91, 91, 90, 90, 88, 88, 88, 88, 88, 88, 88, 88, 88, 88, 88, 88, 88, 88, 88, 88, 88, 88, 88, 88, 88, 88, 88, 88, 88, 88]","[1010, 1010, 1010, 1010, 1010, 1010, 1010, 1010, 1010, 1010, 1010, 1010, 1010, 1010, 1010, 1010, 1010, 1010, 1010, 1005, 999, 992, 986, 968, 959, 947, 935, 889, 868, 847, 825, 791, 773, 755, 738, 698, 676, 653, 632, 591, 574, 562, 546, 515, 498, 482, 468, 436, 422, 406, 388, 359, 349, 340, 331, 310, 298, 283, 270, 249, 239, 230, 221, 205, 200, 192, 186, 173, 167, 161, 158, 149, 146, 142, 141, 136, 134, 132, 131, 127, 126, 124, 123, 122, 122, 121, 121, 120, 120, 119, 119, 118, 118, 118, 118, 118, 118, 118, 118, 118, 118, 118, 118]"
"Trust","Teilnehmer A hat Ihnen 2 Punkte übermittelt.","Payback","1","undefined","6","0","2","60","1080","291","5","1","868","0","legacy","[11, 21, 31, 41, 51, 61, 71, 81, 91, 101, 111, 121, 131, 141, 151, 161, 171, 181, 191, 201, 211, 221, 231, 241, 251, 261, 271, 281, 291, 301, 311, 321, 331, 341, 351, 361, 371, 381, 391, 401, 411, 421, 431, 441, 451, 461, 471, 481, 491, 501, 511, 521, 531, 541, 551, 561, 571, 581, 591, 601, 611, 621, 631, 641, 651, 661, 671, 681, 691, 701, 711, 721, 731, 741, 751, 761, 771, 781, 791, 801, 811, 821, 831, 841, 851, 861]","1100","1920","[960, 960, 960, 960, 960, 960, 960, 960, 960, 960, 960, 960, 960, 960, 960, 960, 960, 960, 960, 961, 963, 966, 970, 976, 986, 1008, 1029, 1056, 1088, 1185, 1249, 1315, 1372, 1502, 1567, 1621, 1669, 1732, 1753, 1771, 1787, 1803, 1811, 1818, 1827, 1843, 1850, 1859, 1866, 1878, 1884, 1887, 1889, 1891, 1891, 1891, 1891, 1891, 1891, 1891, 1891, 1891, 1891, 1890, 1888, 1882, 1881, 1877, 1873, 1865, 1859, 1853, 1843, 1829, 1822, 1818, 1813, 1808, 1807, 1807, 1805, 1805, 1805, 1805, 1805, 1805]","[1010, 1010, 1010, 1010, 1010, 1010, 1010, 1010, 1010, 1010, 1010, 1010, 1010, 1010, 1010, 1010, 1010, 1010, 1009, 1006, 1005, 1001, 998, 992, 987, 974, 964, 952, 934, 872, 826, 753, 680, 529, 448, 381, 320, 218, 172, 129, 97, 52, 34, 13, 0, 0, 0, 0, 0, 0, 0, 0, 0, 0, 0, 0, 0, 0, 0, 0, 0, 0, 0, 0, 0, 4, 4, 4, 7, 9, 11, 13, 14, 16, 17, 18, 19, 21, 21, 22, 22, 22, 22, 22, 22, 22]"
"Trust","Teilnehmer A hat Ihnen 2 Punkte übermittelt.","Payback","0","undefined","7","0","2","60","1080","221","10","2","1606","0","legacy","[11, 21, 31, 41, 51, 61, 71, 81, 91, 101, 111, 121, 131, 141, 151, 161, 171, 181, 191, 201, 211, 221, 231, 241, 251, 261, 271, 281, 291, 301, 311, 321, 331, 341, 351, 361, 371, 381, 391, 401, 411, 421, 431, 441, 451, 461, 471, 481, 491, 501, 511, 521, 531, 541, 551, 561, 571, 581, 591, 601, 611, 621, 631, 641, 651, 661, 671, 681, 691, 701, 711, 721, 731, 741, 751, 761, 771, 781, 791, 801, 811, 821, 831, 841, 851, 861, 871, 881, 891, 901, 911, 921, 931, 941, 951, 961, 971, 981, 991, 1001, 1011, 1021, 1031, 1041, 1051, 1061, 1071, 1081, 1091, 1101, 1111, 1121, 1131, 1141, 1151, 1161, 1171, 1181, 1191, 1201, 1211, 1221, 1231, 1241, 1251, 1261, 1271, 1281, 1291, 1301, 1311, 1321, 1331, 1341, 1351, 1361, 1371, 1381, 1391, 1401, 1411, 1421, 1431, 1441, 1451, 1461, 1471, 1481, 1491, 1501, 1511, 1521, 1531, 1541, 1551, 1561, 1571, 1581, 1591, 1601]","1100","1920","[960, 960, 960, 960, 960, 960, 960, 960, 960, 960, 960, 959, 957, 957, 955, 953, 952, 951, 946, 943, 941, 938, 930, 925, 920, 914, 904, 898, 888, 880, 859, 850, 843, 833, 810, 800, 789, 780, 764, 756, 749, 744, 729, 721, 716, 708, 695, 688, 681, 678, 666, 662, 658, 652, 637, 629, 621, 609, 590, 580, 574, 566, 539, 529, 518, 506, 480, 472, 464, 456, 440, 434, 426, 422, 410, 405, 395, 386, 372, 364, 358, 354, 349, 345, 342, 337, 324, 317, 309, 305, 298, 294, 291, 289, 286, 283, 279, 276, 268, 265, 261, 258, 256, 255, 254, 254, 253, 253, 253, 252, 252, 252, 252, 252, 252, 252, 252, 252, 252, 252, 252, 252, 252, 252, 252, 252, 252, 252, 252, 252, 252, 252, 252, 252, 252, 252, 252, 252, 252, 252, 252, 252, 252, 252, 252, 252, 252, 252, 252, 252, 252, 252, 252, 252, 252, 252, 252, 252, 252, 252]","[1010, 1010, 1010, 1010, 1010, 1010, 1010, 1010, 1010, 1008, 1002, 999, 996, 992, 986, 979, 974, 968, 956, 950, 945, 937, 918, 905, 893, 881, 855, 839, 816, 798, 756, 737, 724, 705, 665, 650, 634, 620, 598, 589, 581, 573, 556, 545, 538, 530, 517, 510, 504, 501, 490, 487, 482, 481, 471, 466, 460, 456, 445, 434, 428, 416, 394, 379, 369, 356, 326, 316, 307, 298, 280, 271, 263, 257, 241, 233, 222, 213, 196, 188, 182, 179, 173, 170, 166, 162, 153, 147, 142, 138, 134, 130, 128, 126, 124, 122, 118, 115, 109, 106, 104, 102, 101, 99, 99, 99, 97, 97, 97, 97, 97, 96, 96, 96, 96, 96, 96, 96, 96, 96, 96, 96, 96, 96, 96, 96, 96, 96, 96, 96, 96, 96, 96, 96, 96, 96, 96, 96, 96, 96, 96, 96, 96, 96, 96, 96, 96, 96, 96, 96, 96, 96, 96, 96, 96, 96, 96, 96, 96, 96]"
"NoTrust","Teilnehmer A hat Ihnen keine 2 Punkte übermittelt.","Payback","0","undefined","8","0","2","60","1080","221","0","2","1606","0","legacy","[11, 21, 31, 41, 51, 61, 71, 81, 91, 101, 111, 121, 131, 141, 151, 161, 171, 181, 191, 201, 211, 221, 231, 241, 251, 261, 271, 281, 291, 301, 311, 321, 331, 341, 351, 361, 371, 381, 391, 401, 411, 421, 431, 441, 451, 461, 471, 481, 491, 501, 511, 521, 531, 541, 551, 561, 571, 581, 591, 601, 611, 621, 631, 641, 651, 661, 671, 681, 691, 701, 711, 721, 731, 741, 751, 761, 771, 781, 791, 801, 811, 821, 831, 841, 851, 861, 871, 881, 891, 901, 911, 921, 931, 941, 951, 961, 971, 981, 991, 1001, 1011, 1021, 1031, 1041, 1051, 1061, 1071, 1081, 1091, 1101, 1111, 1121, 1131, 1141, 1151, 1161, 1171, 1181, 1191, 1201, 1211, 1221, 1231, 1241, 1251, 1261, 1271, 1281, 1291, 1301, 1311, 1321, 1331, 1341, 1351, 1361, 1371, 1381, 1391, 1401, 1411, 1421, 1431, 1441, 1451, 1461, 1471, 1481, 1491, 1501, 1511, 1521, 1531, 1541, 1551, 1561, 1571, 1581, 1591, 1601]","1100","1920","[960, 960, 960, 960, 960, 960, 960, 960, 960, 960, 960, 959, 957, 957, 955, 953, 952, 951, 946, 943, 941, 938, 930, 925, 920, 914, 904, 898, 888, 880, 859, 850, 843, 833, 810, 800, 789, 780, 764, 756, 749, 744, 729, 721, 716, 708, 695, 688, 681, 678, 666, 662, 658, 652, 637, 629, 621, 609, 590, 580, 574, 566, 539, 529, 518, 506, 480, 472, 464, 456, 440, 434, 426, 422, 410, 405, 395, 386, 372, 364, 358, 354, 349, 345, 342, 337, 324, 317, 309, 305, 298, 294, 291, 289, 286, 283, 279, 276, 268, 265, 261, 258, 256, 255, 254, 254, 253, 253, 253, 252, 252, 252, 252, 252, 252, 252, 252, 252, 252, 252, 252, 252, 252, 252, 252, 252, 252, 252, 252, 252, 252, 252, 252, 252, 252, 252, 252, 252, 252, 252, 252, 252, 252, 252, 252, 252, 252, 252, 252, 252, 252, 252, 252, 252, 252, 252, 252, 252, 252, 252]","[1010, 1010, 1010, 1010, 1010, 1010, 1010, 1010, 1010, 1008, 1002, 999, 996, 992, 986, 979, 974, 968, 956, 950, 945, 937, 918, 905, 893, 881, 855, 839, 816, 798, 756, 737, 724, 705, 665, 650, 634, 620, 598, 589, 581, 573, 556, 545, 538, 530, 517, 510, 504, 501, 490, 487, 482, 481, 471, 466, 460, 456, 445, 434, 428, 416, 394, 379, 369, 356, 326, 316, 307, 298, 280, 271, 263, 257, 241, 233, 222, 213, 196, 188, 182, 179, 173, 170, 166, 162, 153, 147, 142, 138, 134, 130, 128, 126, 124, 122, 118, 115, 109, 106, 104, 102, 101, 99, 99, 99, 97, 97, 97, 97, 97, 96, 96, 96, 96, 96, 96, 96, 96, 96, 96, 96, 96, 96, 96, 96, 96, 96, 96, 96, 96, 96, 96, 96, 96, 96, 96, 96, 96, 96, 96, 96, 96, 96, 96, 96, 96, 96, 96, 96, 96, 96, 96, 96, 96, 96, 96, 96, 96, 96]"
"Promise","Wie oft werden Sie die Hälfte zurückgeben?","Promise","1","undefined","8","0","3","60","1080","161","0","1","1096","0","legacy","[11, 21, 31, 41, 51, 61, 71, 81, 91, 101, 111, 121, 131, 141, 151, 161, 171, 181, 191, 201, 211, 221, 231, 241, 251, 261, 271, 281, 291, 301, 311, 321, 331, 341, 351, 361, 371, 381, 391, 401, 411, 421, 431, 441, 451, 461, 471, 481, 491, 501, 511, 521, 531, 541, 551, 561, 571, 581, 591, 601, 611, 621, 631, 641, 651, 661, 671, 681, 691, 701, 711, 721, 731, 741, 751, 761, 771, 781, 791, 801, 811, 821, 831, 841, 851, 861, 871, 881, 891, 901, 911, 921, 931, 941, 951, 961, 971, 981, 991, 1001, 1011, 1021, 1031, 1041, 1051, 1061, 1071, 1081, 1091]","1100","1920","[960, 960, 960, 960, 960, 961, 965, 970, 974, 977, 981, 998, 1003, 1008, 1014, 1030, 1049, 1074, 1107, 1173, 1206, 1236, 1270, 1339, 1374, 1412, 1436, 1477, 1490, 1504, 1513, 1526, 1530, 1536, 1541, 1555, 1559, 1566, 1572, 1579, 1585, 1591, 1595, 1604, 1609, 1614, 1619, 1633, 1642, 1652, 1661, 1676, 1683, 1688, 1695, 1703, 1707, 1709, 1711, 1718, 1721, 1722, 1722, 1723, 1723, 1723, 1723, 1723, 1723, 1723, 1723, 1723, 1723, 1723, 1723, 1723, 1723, 1723, 1723, 1723, 1723, 1723, 1723, 1723, 1723, 1723, 1723, 1723, 1723, 1723, 1723, 1723, 1723, 1723, 1723, 1723, 1723, 1723, 1723, 1723, 1723, 1723, 1723, 1723, 1723, 1723, 1723, 1723, 1723]","[1010, 1010, 1010, 1010, 1010, 1010, 1008, 1000, 993, 989, 984, 972, 968, 964, 957, 935, 904, 870, 823, 736, 689, 647, 607, 532, 499, 462, 435, 388, 369, 349, 333, 310, 301, 291, 282, 262, 254, 247, 238, 228, 221, 214, 208, 196, 188, 183, 176, 162, 155, 149, 143, 131, 127, 123, 119, 112, 109, 107, 105, 100, 97, 96, 96, 95, 95, 95, 95, 95, 95, 95, 95, 95, 95, 95, 95, 95, 95, 95, 95, 95, 95, 95, 95, 95, 95, 95, 95, 95, 95, 95, 95, 95, 95, 95, 95, 95, 95, 95, 95, 95, 95, 95, 95, 95, 95, 95, 95, 95, 95]"
"Trust","Teilnehmer A hat Ihnen 2 Punkte übermittelt.","Payback","1","undefined","9","0","3","60","1080","341","5","1","1540","0","legacy","[11, 21, 31, 41, 51, 61, 71, 81, 91, 101, 111, 121, 131, 141, 151, 161, 171, 181, 191, 201, 211, 221, 231, 241, 251, 261, 271, 281, 291, 301, 311, 321, 331, 341, 351, 361, 371, 381, 391, 401, 411, 421, 431, 441, 451, 461, 471, 481, 491, 501, 511, 521, 531, 541, 551, 561, 571, 581, 591, 601, 611, 621, 631, 641, 651, 661, 671, 681, 691, 701, 711, 721, 731, 741, 751, 761, 771, 781, 791, 801, 811, 821, 831, 841, 851, 861, 871, 881, 891, 901, 911, 921, 931, 941, 951, 961, 971, 981, 991, 1001, 1011, 1021, 1031, 1041, 1051, 1061, 1071, 1081, 1091, 1101, 1111, 1121, 1131, 1141, 1151, 1161, 1171, 1181, 1191, 1201, 1211, 1221, 1231, 1241, 1251, 1261, 1271, 1281, 1291, 1301, 1311, 1321, 1331, 1341, 1351, 1361, 1371, 1381, 1391, 1401, 1411, 1421, 1431, 1441, 1451, 1461, 1471, 1481, 1491, 1501, 1511, 1521, 1531]","1100","1920","[960, 960, 960, 960, 960, 960, 960, 960, 960, 960, 960, 960, 960, 960, 960, 960, 960, 961, 961, 961, 961, 961, 961, 961, 961, 961, 961, 961, 961, 960, 960, 959, 954, 947, 939, 931, 927, 920, 918, 915, 915, 915, 915, 915, 921, 933, 939, 948, 958, 974, 989, 1004, 1014, 1033, 1043, 1051, 1061, 1077, 1085, 1091, 1099, 1112, 1120, 1126, 1131, 1141, 1144, 1148, 1155, 1163, 1170, 1175, 1180, 1196, 1206, 1217, 1227, 1252, 1262, 1274, 1282, 1304, 1314, 1326, 1336, 1358, 1372, 1381, 1389, 1405, 1412, 1417, 1422, 1433, 1439, 1444, 1449, 1461, 1467, 1474, 1477, 1486, 1490, 1496, 1502, 1518, 1528, 1540, 1546, 1560, 1569, 1578, 1586, 1600, 1606, 1611, 1613, 1621, 1624, 1627, 1629, 1635, 1638, 1638, 1640, 1640, 1640, 1640, 1640, 1640, 1640, 1640, 1640, 1640, 1640, 1640, 1640, 1640, 1640, 1640, 1640, 1640, 1640, 1640, 1640, 1640, 1640, 1640, 1640, 1640, 1640, 1640, 1640]","[1010, 1010, 1010, 1010, 1010, 1010, 1010, 1010, 1010, 1010, 1010, 1010, 1010, 1010, 1010, 1010, 1010, 1009, 1007, 1005, 1004, 1001, 999, 997, 995, 990, 986, 982, 979, 973, 969, 964, 957, 937, 922, 907, 894, 866, 854, 840, 829, 810, 795, 778, 761, 717, 697, 674, 655, 628, 610, 592, 582, 558, 546, 534, 521, 502, 491, 485, 475, 460, 452, 446, 440, 429, 428, 423, 417, 408, 402, 398, 393, 379, 372, 365, 358, 335, 327, 317, 309, 291, 282, 273, 264, 246, 235, 227, 219, 206, 201, 196, 191, 183, 178, 174, 170, 162, 156, 152, 150, 143, 141, 137, 135, 128, 124, 119, 116, 109, 105, 103, 101, 98, 95, 94, 93, 90, 89, 89, 87, 86, 85, 85, 84, 84, 84, 84, 84, 84, 84, 84, 84, 84, 84, 84, 84, 84, 84, 84, 84, 84, 84, 84, 84, 84, 84, 84, 84, 84, 84, 84, 84]"
"Trust","Teilnehmer A hat Ihnen 2 Punkte übermittelt.","Payback","1","undefined","10","0","3","60","1080","351","5","1","2205","0","legacy","[11, 21, 31, 41, 51, 61, 71, 81, 91, 101, 111, 121, 131, 141, 151, 161, 171, 181, 191, 201, 211, 221, 231, 241, 251, 261, 271, 281, 291, 301, 311, 321, 331, 341, 351, 361, 371, 381, 391, 401, 411, 421, 431, 441, 451, 461, 471, 481, 491, 501, 511, 521, 531, 541, 551, 561, 571, 581, 591, 601, 611, 621, 631, 641, 651, 661, 671, 681, 691, 701, 711, 721, 731, 741, 751, 761, 771, 781, 791, 801, 811, 821, 831, 841, 851, 861, 871, 881, 891, 901, 911, 921, 931, 941, 951, 961, 971, 981, 991, 1001, 1011, 1021, 1031, 1041, 1051, 1061, 1071, 1081, 1091, 1101, 1111, 1121, 1131, 1141, 1151, 1161, 1171, 1181, 1191, 1201, 1211, 1221, 1231, 1241, 1251, 1261, 1271, 1281, 1291, 1301, 1311, 1321, 1331, 1341, 1351, 1361, 1371, 1381, 1391, 1401, 1411, 1421, 1431, 1441, 1451, 1461, 1471, 1481, 1491, 1501, 1511, 1521, 1531, 1541, 1551, 1561, 1571, 1581, 1591, 1601, 1611, 1621, 1631, 1641, 1651, 1661, 1671, 1681, 1691, 1701, 1711, 1721, 1731, 1741, 1751, 1761, 1771, 1781, 1791, 1801, 1811, 1821, 1831, 1841, 1851, 1861, 1871, 1881, 1891, 1901, 1911, 1921, 1931, 1941, 1951, 1961, 1971, 1981, 1991, 2001, 2011, 2021, 2031, 2041, 2051, 2061, 2071, 2081, 2091, 2101, 2111, 2121, 2131, 2141, 2151, 2161, 2171, 2181, 2191, 2201]","1100","1920","[960, 960, 960, 960, 960, 960, 960, 960, 960, 960, 960, 960, 960, 960, 960, 960, 960, 960, 960, 960, 960, 960, 958, 957, 957, 956, 953, 953, 951, 950, 949, 949, 949, 949, 946, 945, 945, 945, 945, 945, 945, 945, 945, 945, 945, 945, 945, 945, 945, 945, 945, 945, 945, 945, 946, 947, 949, 949, 949, 950, 950, 951, 953, 954, 954, 955, 957, 959, 960, 962, 966, 969, 972, 975, 981, 985, 990, 994, 1004, 1009, 1014, 1017, 1028, 1033, 1036, 1041, 1052, 1057, 1061, 1064, 1070, 1074, 1079, 1084, 1090, 1094, 1097, 1101, 1108, 1110, 1112, 1116, 1120, 1121, 1122, 1124, 1127, 1128, 1130, 1131, 1132, 1133, 1133, 1135, 1136, 1139, 1141, 1143, 1148, 1151, 1155, 1159, 1165, 1170, 1172, 1176, 1185, 1188, 1192, 1199, 1205, 1209, 1213, 1216, 1222, 1224, 1230, 1235, 1246, 1252, 1258, 1267, 1281, 1287, 1293, 1299, 1314, 1321, 1331, 1340, 1360, 1367, 1375, 1382, 1400, 1407, 1413, 1422, 1435, 1441, 1447, 1454, 1464, 1473, 1478, 1486, 1499, 1503, 1511, 1518, 1532, 1541, 1549, 1557, 1575, 1585, 1596, 1603, 1622, 1630, 1638, 1643, 1651, 1654, 1659, 1661, 1666, 1669, 1671, 1672, 1678, 1682, 1686, 1688, 1693, 1697, 1699, 1702, 1707, 1709, 1712, 1716, 1718, 1720, 1722, 1723, 1725, 1725, 1728, 1728, 1729, 1729, 1729, 1729, 1729, 1729, 1729, 1729, 1729, 1729]","[1010, 1010, 1010, 1010, 1010, 1010, 1010, 1010, 1010, 1010, 1010, 1010, 1010, 1010, 1010, 1010, 1010, 1010, 1010, 1010, 1010, 1009, 1006, 1004, 1003, 1000, 994, 991, 988, 984, 975, 970, 964, 954, 929, 917, 906, 894, 871, 860, 852, 842, 826, 816, 808, 800, 789, 786, 782, 777, 768, 763, 759, 756, 749, 744, 741, 739, 735, 733, 732, 732, 728, 726, 724, 722, 719, 717, 716, 714, 709, 706, 702, 699, 693, 688, 684, 681, 673, 668, 664, 662, 653, 648, 647, 643, 634, 629, 625, 623, 614, 610, 602, 593, 584, 575, 568, 559, 542, 536, 529, 521, 508, 503, 497, 491, 479, 473, 466, 461, 448, 442, 435, 431, 420, 414, 411, 405, 394, 390, 383, 377, 366, 359, 357, 351, 341, 336, 331, 325, 318, 314, 311, 308, 304, 302, 298, 294, 287, 283, 280, 278, 274, 272, 270, 268, 266, 264, 259, 258, 254, 253, 251, 248, 242, 241, 238, 236, 231, 228, 227, 225, 223, 222, 221, 218, 212, 211, 210, 207, 203, 202, 201, 200, 197, 196, 195, 194, 191, 190, 189, 189, 186, 186, 183, 181, 178, 176, 174, 173, 169, 166, 164, 164, 160, 157, 155, 154, 150, 148, 146, 144, 141, 140, 137, 137, 134, 134, 132, 131, 130, 130, 130, 130, 130, 130, 130, 130, 130, 130]"
"Trust","Teilnehmer A hat Ihnen 2 Punkte übermittelt.","Payback","1","undefined","11","0","3","60","1080","311","5","1","2038","0","legacy","[11, 21, 31, 41, 51, 61, 71, 81, 91, 101, 111, 121, 131, 141, 151, 161, 171, 181, 191, 201, 211, 221, 231, 241, 251, 261, 271, 281, 291, 301, 311, 321, 331, 341, 351, 361, 371, 381, 391, 401, 411, 421, 431, 441, 451, 461, 471, 481, 491, 501, 511, 521, 531, 541, 551, 561, 571, 581, 591, 601, 611, 621, 631, 641, 651, 661, 671, 681, 691, 701, 711, 721, 731, 741, 751, 761, 771, 781, 791, 801, 811, 821, 831, 841, 851, 861, 871, 881, 891, 901, 911, 921, 931, 941, 951, 961, 971, 981, 991, 1001, 1011, 1021, 1031, 1041, 1051, 1061, 1071, 1081, 1091, 1101, 1111, 1121, 1131, 1141, 1151, 1161, 1171, 1181, 1191, 1201, 1211, 1221, 1231, 1241, 1251, 1261, 1271, 1281, 1291, 1301, 1311, 1321, 1331, 1341, 1351, 1361, 1371, 1381, 1391, 1401, 1411, 1421, 1431, 1441, 1451, 1461, 1471, 1481, 1491, 1501, 1511, 1521, 1531, 1541, 1551, 1561, 1571, 1581, 1591, 1601, 1611, 1621, 1631, 1641, 1651, 1661, 1671, 1681, 1691, 1701, 1711, 1721, 1731, 1741, 1751, 1761, 1771, 1781, 1791, 1801, 1811, 1821, 1831, 1841, 1851, 1861, 1871, 1881, 1891, 1901, 1911, 1921, 1931, 1941, 1951, 1961, 1971, 1981, 1991, 2001, 2011, 2021, 2031]","1100","1920","[960, 960, 960, 960, 960, 960, 960, 960, 960, 960, 960, 960, 960, 960, 960, 960, 960, 960, 960, 960, 960, 960, 960, 960, 960, 962, 964, 967, 969, 973, 975, 979, 982, 983, 989, 990, 993, 994, 1001, 1002, 1004, 1006, 1010, 1013, 1015, 1015, 1017, 1018, 1019, 1021, 1023, 1026, 1027, 1028, 1031, 1031, 1032, 1033, 1038, 1038, 1039, 1040, 1043, 1044, 1044, 1046, 1049, 1049, 1050, 1051, 1051, 1053, 1054, 1055, 1061, 1064, 1066, 1071, 1082, 1088, 1096, 1106, 1130, 1139, 1151, 1162, 1186, 1198, 1206, 1213, 1226, 1232, 1238, 1243, 1250, 1254, 1259, 1263, 1273, 1278, 1284, 1287, 1302, 1306, 1311, 1316, 1326, 1332, 1335, 1343, 1355, 1358, 1362, 1368, 1376, 1381, 1387, 1394, 1413, 1424, 1435, 1447, 1474, 1488, 1502, 1514, 1541, 1554, 1568, 1580, 1598, 1609, 1617, 1624, 1633, 1636, 1639, 1641, 1644, 1646, 1647, 1647, 1647, 1647, 1647, 1648, 1649, 1649, 1649, 1649, 1650, 1650, 1650, 1650, 1651, 1651, 1651, 1651, 1651, 1651, 1651, 1651, 1651, 1651, 1651, 1651, 1651, 1651, 1651, 1651, 1651, 1651, 1651, 1651, 1651, 1651, 1651, 1651, 1651, 1651, 1651, 1651, 1651, 1651, 1651, 1651, 1651, 1651, 1651, 1651, 1651, 1651, 1651, 1651, 1651, 1651, 1651, 1651, 1651, 1651, 1651, 1651, 1651]","[1010, 1010, 1010, 1010, 1010, 1010, 1010, 1010, 1010, 1010, 1010, 1010, 1010, 1010, 1010, 1008, 1007, 1005, 1002, 1000, 996, 993, 988, 985, 982, 976, 967, 961, 953, 945, 931, 924, 917, 910, 894, 887, 878, 871, 850, 839, 829, 817, 797, 787, 778, 769, 755, 747, 737, 726, 699, 684, 671, 662, 643, 635, 626, 613, 590, 576, 563, 552, 531, 522, 512, 502, 480, 469, 458, 448, 428, 417, 408, 399, 379, 368, 359, 348, 327, 316, 305, 295, 266, 257, 244, 234, 212, 202, 195, 188, 179, 174, 168, 167, 160, 158, 154, 150, 143, 139, 136, 134, 126, 124, 120, 118, 114, 110, 109, 106, 101, 101, 99, 98, 95, 95, 94, 94, 92, 92, 92, 92, 92, 92, 92, 92, 92, 92, 92, 92, 92, 93, 94, 94, 96, 96, 96, 96, 96, 96, 96, 96, 96, 96, 96, 96, 96, 96, 96, 96, 96, 96, 96, 96, 95, 95, 95, 95, 95, 95, 95, 95, 95, 95, 95, 95, 95, 95, 95, 95, 95, 95, 95, 95, 95, 95, 95, 95, 95, 95, 95, 95, 95, 95, 95, 95, 95, 95, 95, 95, 95, 95, 95, 95, 95, 95, 95, 95, 95, 95, 95, 95, 95]"
"Promise","Wie oft werden Sie die Hälfte zurückgeben?","Promise","0","undefined","11","0","4","60","1080","521","5","2","2550","0","legacy","[11, 21, 31, 41, 51, 61, 71, 81, 91, 101, 111, 121, 131, 141, 151, 161, 171, 181, 191, 201, 211, 221, 231, 241, 251, 261, 271, 281, 291, 301, 311, 321, 331, 341, 351, 361, 371, 381, 391, 401, 411, 421, 431, 441, 451, 461, 471, 481, 491, 501, 511, 521, 531, 541, 551, 561, 571, 581, 591, 601, 611, 621, 631, 641, 651, 661, 671, 681, 691, 701, 711, 721, 731, 741, 751, 761, 771, 781, 791, 801, 811, 821, 831, 841, 851, 861, 871, 881, 891, 901, 911, 921, 931, 941, 951, 961, 971, 981, 991, 1001, 1011, 1021, 1031, 1041, 1051, 1061, 1071, 1081, 1091, 1101, 1111, 1121, 1131, 1141, 1151, 1161, 1171, 1181, 1191, 1201, 1211, 1221, 1231, 1241, 1251, 1261, 1271, 1281, 1291, 1301, 1311, 1321, 1331, 1341, 1351, 1361, 1371, 1381, 1391, 1401, 1411, 1421, 1431, 1441, 1451, 1461, 1471, 1481, 1491, 1501, 1511, 1521, 1531, 1541, 1551, 1561, 1571, 1581, 1591, 1601, 1611, 1621, 1631, 1641, 1651, 1661, 1671, 1681, 1691, 1701, 1711, 1721, 1731, 1741, 1751, 1761, 1771, 1781, 1791, 1801, 1811, 1821, 1831, 1841, 1851, 1861, 1871, 1881, 1891, 1901, 1911, 1921, 1931, 1941, 1951, 1961, 1971, 1981, 1991, 2001, 2011, 2021, 2031, 2041, 2051, 2061, 2071, 2081, 2091, 2101, 2111, 2121, 2131, 2141, 2151, 2161, 2171, 2181, 2191, 2201, 2211, 2221, 2231, 2241, 2251, 2261, 2271, 2281, 2291, 2301, 2311, 2321, 2331, 2341, 2351, 2361, 2371, 2381, 2391, 2401, 2411, 2421, 2431, 2441, 2451, 2461, 2471, 2481, 2491, 2501, 2511, 2521, 2531, 2541]","1100","1920","[960, 960, 960, 960, 960, 960, 960, 960, 960, 960, 960, 960, 960, 960, 960, 960, 960, 960, 960, 960, 960, 960, 960, 960, 960, 960, 960, 960, 959, 959, 959, 959, 959, 957, 957, 957, 957, 957, 957, 957, 957, 957, 957, 957, 957, 957, 956, 955, 955, 955, 954, 953, 953, 952, 952, 952, 951, 951, 948, 948, 947, 946, 943, 943, 942, 942, 941, 941, 939, 939, 939, 939, 939, 939, 938, 938, 938, 938, 938, 938, 938, 938, 938, 938, 938, 938, 938, 938, 938, 938, 938, 938, 938, 938, 938, 938, 938, 938, 938, 938, 938, 938, 938, 936, 936, 934, 932, 930, 929, 928, 924, 923, 920, 918, 912, 907, 902, 897, 887, 883, 879, 875, 867, 861, 857, 852, 842, 837, 836, 832, 827, 824, 821, 816, 813, 809, 809, 807, 803, 801, 799, 797, 792, 787, 784, 781, 773, 767, 763, 758, 749, 745, 741, 736, 725, 719, 715, 710, 702, 699, 696, 689, 682, 678, 670, 662, 645, 634, 625, 613, 594, 587, 579, 573, 557, 549, 542, 537, 525, 518, 510, 503, 492, 489, 485, 483, 476, 473, 468, 463, 457, 454, 448, 440, 427, 419, 413, 408, 395, 388, 382, 376, 359, 351, 341, 334, 321, 316, 310, 304, 291, 288, 285, 283, 279, 276, 274, 272, 270, 269, 268, 268, 266, 265, 265, 264, 263, 262, 262, 262, 260, 259, 259, 259, 259, 259, 259, 259, 259, 259, 259, 259, 259, 259, 259, 259, 259, 259, 259, 259, 259, 259, 259, 259]","[1010, 1010, 1010, 1010, 1010, 1010, 1010, 1010, 1010, 1010, 1010, 1010, 1010, 1010, 1010, 1010, 1010, 1010, 1010, 1010, 1010, 1010, 1010, 1010, 1010, 1009, 1009, 1007, 1005, 1005, 1004, 1003, 1001, 999, 996, 993, 991, 989, 984, 982, 979, 977, 973, 970, 968, 965, 960, 957, 954, 951, 944, 937, 932, 926, 911, 905, 898, 893, 882, 877, 870, 865, 852, 848, 844, 841, 832, 828, 823, 820, 812, 806, 801, 797, 784, 774, 766, 758, 738, 729, 721, 713, 692, 682, 671, 660, 641, 634, 627, 621, 606, 599, 591, 582, 564, 554, 547, 539, 529, 524, 520, 513, 503, 498, 494, 490, 482, 477, 471, 466, 454, 448, 442, 435, 420, 413, 405, 396, 384, 378, 372, 367, 356, 349, 344, 339, 331, 329, 327, 324, 320, 318, 316, 313, 310, 308, 308, 307, 304, 304, 304, 303, 302, 300, 299, 299, 296, 296, 295, 294, 292, 292, 291, 289, 287, 287, 286, 284, 281, 281, 280, 278, 277, 276, 275, 273, 267, 260, 254, 247, 234, 229, 223, 218, 207, 204, 200, 196, 190, 185, 181, 178, 171, 169, 167, 165, 162, 161, 158, 156, 153, 152, 149, 146, 136, 133, 131, 127, 121, 118, 115, 111, 102, 99, 95, 92, 85, 85, 81, 80, 75, 75, 74, 74, 72, 72, 72, 72, 72, 72, 72, 72, 72, 72, 72, 72, 72, 72, 72, 72, 72, 72, 72, 72, 72, 72, 72, 72, 72, 72, 72, 72, 72, 72, 72, 72, 72, 72, 72, 72, 72, 72, 72, 72]"
"Trust","Teilnehmer A hat Ihnen 2 Punkte übermittelt.","Payback","0","undefined","12","0","4","60","1080","881","10","2","2590","0","legacy","[11, 21, 31, 41, 51, 61, 71, 81, 91, 101, 111, 121, 131, 141, 151, 161, 171, 181, 191, 201, 211, 221, 231, 241, 251, 261, 271, 281, 291, 301, 311, 321, 331, 341, 351, 361, 371, 381, 391, 401, 411, 421, 431, 441, 451, 461, 471, 481, 491, 501, 511, 521, 531, 541, 551, 561, 571, 581, 591, 601, 611, 621, 631, 641, 651, 661, 671, 681, 691, 701, 711, 721, 731, 741, 751, 761, 771, 781, 791, 801, 811, 821, 831, 841, 851, 861, 871, 881, 891, 901, 911, 921, 931, 941, 951, 961, 971, 981, 991, 1001, 1011, 1021, 1031, 1041, 1051, 1061, 1071, 1081, 1091, 1101, 1111, 1121, 1131, 1141, 1151, 1161, 1171, 1181, 1191, 1201, 1211, 1221, 1231, 1241, 1251, 1261, 1271, 1281, 1291, 1301, 1311, 1321, 1331, 1341, 1351, 1361, 1371, 1381, 1391, 1401, 1411, 1421, 1431, 1441, 1451, 1461, 1471, 1481, 1491, 1501, 1511, 1521, 1531, 1541, 1551, 1561, 1571, 1581, 1591, 1601, 1611, 1621, 1631, 1641, 1651, 1661, 1671, 1681, 1691, 1701, 1711, 1721, 1731, 1741, 1751, 1761, 1771, 1781, 1791, 1801, 1811, 1821, 1831, 1841, 1851, 1861, 1871, 1881, 1891, 1901, 1911, 1921, 1931, 1941, 1951, 1961, 1971, 1981, 1991, 2001, 2011, 2021, 2031, 2041, 2051, 2061, 2071, 2081, 2091, 2101, 2111, 2121, 2131, 2141, 2151, 2161, 2171, 2181, 2191, 2201, 2211, 2221, 2231, 2241, 2251, 2261, 2271, 2281, 2291, 2301, 2311, 2321, 2331, 2341, 2351, 2361, 2371, 2381, 2391, 2401, 2411, 2421, 2431, 2441, 2451, 2461, 2471, 2481, 2491, 2501, 2511, 2521, 2531, 2541, 2551, 2561, 2571, 2581]","1100","1920","[960, 960, 960, 960, 960, 960, 960, 960, 960, 960, 960, 960, 960, 960, 960, 960, 960, 960, 960, 960, 960, 960, 960, 960, 960, 960, 960, 960, 960, 960, 960, 960, 960, 960, 960, 960, 960, 960, 960, 960, 960, 960, 960, 960, 960, 960, 960, 960, 960, 960, 960, 960, 960, 960, 960, 960, 960, 960, 960, 960, 960, 960, 960, 960, 960, 960, 959, 959, 959, 959, 958, 958, 958, 958, 958, 958, 958, 958, 958, 958, 958, 957, 957, 956, 956, 955, 954, 953, 953, 951, 950, 949, 949, 948, 946, 944, 943, 942, 940, 940, 939, 939, 939, 939, 938, 938, 935, 934, 934, 933, 933, 933, 933, 931, 931, 930, 930, 930, 929, 929, 929, 929, 928, 928, 928, 928, 928, 928, 928, 928, 928, 928, 928, 925, 925, 924, 923, 923, 920, 919, 918, 916, 910, 908, 905, 899, 889, 882, 876, 870, 857, 851, 847, 841, 833, 829, 825, 822, 813, 808, 807, 802, 792, 790, 783, 778, 768, 763, 760, 755, 750, 747, 743, 741, 738, 735, 730, 728, 723, 718, 715, 707, 692, 686, 677, 670, 659, 652, 647, 641, 632, 627, 622, 618, 609, 605, 601, 598, 588, 585, 580, 574, 560, 553, 546, 541, 529, 526, 521, 518, 510, 506, 502, 497, 487, 479, 472, 466, 455, 448, 441, 432, 413, 405, 398, 389, 376, 367, 362, 357, 345, 338, 332, 326, 311, 303, 298, 292, 285, 282, 281, 278, 278, 278, 278, 278, 278, 278, 278, 278, 278, 278, 278, 278, 278, 278, 278, 278]","[1010, 1010, 1010, 1010, 1010, 1010, 1010, 1010, 1010, 1010, 1010, 1010, 1010, 1010, 1010, 1010, 1010, 1010, 1010, 1010, 1010, 1010, 1010, 1010, 1010, 1010, 1010, 1010, 1010, 1010, 1010, 1010, 1010, 1010, 1010, 1010, 1010, 1010, 1010, 1010, 1010, 1010, 1010, 1010, 1010, 1010, 1010, 1010, 1010, 1010, 1006, 1006, 1004, 1003, 999, 999, 996, 996, 993, 990, 990, 988, 986, 985, 984, 983, 982, 980, 980, 980, 978, 978, 977, 977, 975, 975, 975, 974, 972, 971, 969, 968, 962, 959, 956, 953, 944, 939, 934, 929, 915, 906, 899, 888, 865, 850, 838, 828, 811, 805, 797, 791, 775, 769, 760, 753, 742, 737, 733, 729, 722, 718, 716, 711, 704, 700, 697, 693, 684, 680, 674, 669, 656, 649, 641, 634, 619, 611, 604, 596, 585, 578, 572, 564, 550, 540, 534, 526, 512, 505, 498, 491, 476, 470, 464, 454, 439, 431, 424, 419, 408, 403, 398, 393, 384, 379, 377, 373, 365, 361, 360, 356, 348, 346, 342, 338, 332, 328, 326, 321, 318, 315, 313, 312, 310, 307, 306, 304, 302, 299, 297, 292, 280, 273, 266, 257, 245, 239, 234, 228, 220, 216, 213, 209, 204, 201, 199, 197, 191, 188, 186, 182, 175, 171, 167, 166, 161, 159, 157, 155, 152, 151, 148, 147, 142, 139, 136, 133, 128, 126, 122, 119, 111, 107, 105, 101, 97, 95, 94, 93, 90, 88, 86, 85, 80, 80, 80, 79, 78, 77, 77, 77, 77, 77, 77, 77, 77, 77, 77, 77, 77, 77, 77, 77, 77, 77, 77, 77]"
"Trust","Teilnehmer A hat Ihnen 2 Punkte übermittelt.","Payback","0","undefined","13","0","4","60","1080","831","10","2","2726","0","legacy","[11, 21, 31, 41, 51, 61, 71, 81, 91, 101, 111, 121, 131, 141, 151, 161, 171, 181, 191, 201, 211, 221, 231, 241, 251, 261, 271, 281, 291, 301, 311, 321, 331, 341, 351, 361, 371, 381, 391, 401, 411, 421, 431, 441, 451, 461, 471, 481, 491, 501, 511, 521, 531, 541, 551, 561, 571, 581, 591, 601, 611, 621, 631, 641, 651, 661, 671, 681, 691, 701, 711, 721, 731, 741, 751, 761, 771, 781, 791, 801, 811, 821, 831, 841, 851, 861, 871, 881, 891, 901, 911, 921, 931, 941, 951, 961, 971, 981, 991, 1001, 1011, 1021, 1031, 1041, 1051, 1061, 1071, 1081, 1091, 1101, 1111, 1121, 1131, 1141, 1151, 1161, 1171, 1181, 1191, 1201, 1211, 1221, 1231, 1241, 1251, 1261, 1271, 1281, 1291, 1301, 1311, 1321, 1331, 1341, 1351, 1361, 1371, 1381, 1391, 1401, 1411, 1421, 1431, 1441, 1451, 1461, 1471, 1481, 1491, 1501, 1511, 1521, 1531, 1541, 1551, 1561, 1571, 1581, 1591, 1601, 1611, 1621, 1631, 1641, 1651, 1661, 1671, 1681, 1691, 1701, 1711, 1721, 1731, 1741, 1751, 1761, 1771, 1781, 1791, 1801, 1811, 1821, 1831, 1841, 1851, 1861, 1871, 1881, 1891, 1901, 1911, 1921, 1931, 1941, 1951, 1961, 1971, 1981, 1991, 2001, 2011, 2021, 2031, 2041, 2051, 2061, 2071, 2081, 2091, 2101, 2111, 2121, 2131, 2141, 2151, 2161, 2171, 2181, 2191, 2201, 2211, 2221, 2231, 2241, 2251, 2261, 2271, 2281, 2291, 2301, 2311, 2321, 2331, 2341, 2351, 2361, 2371, 2381, 2391, 2401, 2411, 2421, 2431, 2441, 2451, 2461, 2471, 2481, 2491, 2501, 2511, 2521, 2531, 2541, 2551, 2561, 2571, 2581, 2591, 2601, 2611, 2621, 2631, 2641, 2651, 2661, 2671, 2681, 2691, 2701, 2711, 2721]","1100","1920","[960, 960, 960, 960, 960, 960, 960, 960, 960, 960, 960, 960, 960, 960, 960, 960, 960, 960, 960, 960, 960, 960, 960, 960, 960, 960, 960, 960, 960, 960, 960, 960, 960, 960, 960, 960, 960, 960, 959, 959, 957, 957, 956, 956, 956, 956, 955, 955, 954, 954, 954, 954, 954, 954, 954, 954, 954, 954, 955, 955, 955, 955, 955, 955, 955, 955, 955, 955, 955, 955, 955, 955, 955, 955, 955, 955, 955, 954, 953, 952, 952, 951, 950, 950, 950, 950, 949, 949, 949, 949, 949, 949, 949, 949, 949, 949, 949, 948, 947, 947, 947, 947, 946, 946, 945, 945, 945, 944, 944, 944, 942, 942, 941, 940, 939, 937, 937, 936, 934, 934, 932, 931, 930, 929, 928, 926, 924, 922, 921, 918, 916, 915, 915, 914, 913, 911, 910, 910, 909, 909, 909, 909, 909, 909, 909, 909, 909, 909, 909, 909, 909, 909, 909, 909, 909, 909, 909, 909, 909, 909, 909, 909, 909, 910, 910, 912, 913, 914, 914, 915, 917, 917, 918, 918, 918, 918, 918, 918, 918, 918, 918, 916, 913, 911, 909, 905, 890, 880, 868, 858, 834, 825, 817, 809, 796, 791, 787, 783, 772, 767, 760, 751, 730, 719, 704, 693, 666, 648, 636, 620, 596, 584, 574, 563, 542, 534, 526, 517, 497, 488, 478, 467, 452, 445, 438, 434, 425, 422, 421, 418, 416, 415, 413, 410, 405, 402, 395, 389, 373, 364, 354, 345, 326, 320, 314, 307, 297, 294, 292, 289, 285, 284, 284, 283, 282, 282, 282, 282, 281, 281, 281, 281, 281, 281, 281, 281, 281, 281, 281, 281, 281, 281]","[1010, 1010, 1010, 1010, 1010, 1010, 1010, 1010, 1010, 1010, 1010, 1010, 1010, 1010, 1010, 1010, 1010, 1010, 1010, 1010, 1010, 1010, 1010, 1010, 1010, 1010, 1010, 1010, 1010, 1010, 1010, 1010, 1010, 1010, 1010, 1010, 1010, 1010, 1008, 1008, 1006, 1005, 1003, 1002, 1002, 1001, 998, 998, 998, 997, 994, 992, 992, 991, 989, 989, 988, 988, 987, 986, 986, 986, 984, 983, 983, 982, 981, 981, 980, 979, 978, 978, 977, 976, 972, 970, 969, 965, 956, 953, 948, 945, 939, 932, 927, 923, 915, 913, 910, 907, 902, 899, 894, 890, 883, 879, 875, 872, 865, 862, 859, 856, 852, 851, 848, 847, 841, 839, 837, 833, 827, 823, 819, 812, 802, 796, 792, 786, 774, 768, 761, 754, 739, 733, 722, 712, 691, 680, 669, 658, 641, 634, 628, 620, 605, 597, 590, 584, 570, 565, 558, 551, 541, 534, 529, 524, 516, 513, 509, 507, 498, 494, 491, 487, 478, 474, 471, 467, 459, 456, 452, 447, 436, 430, 426, 421, 412, 409, 405, 400, 393, 390, 387, 383, 377, 374, 371, 368, 363, 361, 359, 357, 353, 350, 348, 345, 333, 324, 314, 305, 286, 280, 273, 267, 259, 255, 251, 249, 243, 240, 234, 229, 220, 215, 209, 204, 197, 190, 186, 183, 176, 173, 170, 167, 165, 165, 163, 162, 160, 157, 156, 155, 152, 152, 152, 151, 150, 150, 150, 150, 148, 148, 148, 147, 146, 146, 144, 144, 142, 142, 141, 139, 137, 136, 134, 134, 132, 132, 131, 131, 129, 129, 129, 129, 129, 129, 129, 129, 129, 129, 129, 129, 129, 129, 129, 129, 129, 129, 129, 129, 129, 129]"
"Trust","Teilnehmer A hat Ihnen 2 Punkte übermittelt.","Payback","1","undefined","14","0","4","60","1080","351","5","1","2214","0","legacy","[11, 21, 31, 41, 51, 61, 71, 81, 91, 101, 111, 121, 131, 141, 151, 161, 171, 181, 191, 201, 211, 221, 231, 241, 251, 261, 271, 281, 291, 301, 311, 321, 331, 341, 351, 361, 371, 381, 391, 401, 411, 421, 431, 441, 451, 461, 471, 481, 491, 501, 511, 521, 531, 541, 551, 561, 571, 581, 591, 601, 611, 621, 631, 641, 651, 661, 671, 681, 691, 701, 711, 721, 731, 741, 751, 761, 771, 781, 791, 801, 811, 821, 831, 841, 851, 861, 871, 881, 891, 901, 911, 921, 931, 941, 951, 961, 971, 981, 991, 1001, 1011, 1021, 1031, 1041, 1051, 1061, 1071, 1081, 1091, 1101, 1111, 1121, 1131, 1141, 1151, 1161, 1171, 1181, 1191, 1201, 1211, 1221, 1231, 1241, 1251, 1261, 1271, 1281, 1291, 1301, 1311, 1321, 1331, 1341, 1351, 1361, 1371, 1381, 1391, 1401, 1411, 1421, 1431, 1441, 1451, 1461, 1471, 1481, 1491, 1501, 1511, 1521, 1531, 1541, 1551, 1561, 1571, 1581, 1591, 1601, 1611, 1621, 1631, 1641, 1651, 1661, 1671, 1681, 1691, 1701, 1711, 1721, 1731, 1741, 1751, 1761, 1771, 1781, 1791, 1801, 1811, 1821, 1831, 1841, 1851, 1861, 1871, 1881, 1891, 1901, 1911, 1921, 1931, 1941, 1951, 1961, 1971, 1981, 1991, 2001, 2011, 2021, 2031, 2041, 2051, 2061, 2071, 2081, 2091, 2101, 2111, 2121, 2131, 2141, 2151, 2161, 2171, 2181, 2191, 2201, 2211]","1100","1920","[960, 960, 960, 960, 960, 960, 960, 960, 960, 960, 960, 960, 960, 960, 959, 959, 959, 959, 960, 960, 960, 961, 964, 965, 966, 968, 971, 973, 975, 977, 980, 981, 982, 984, 984, 986, 986, 988, 989, 990, 992, 992, 995, 997, 998, 999, 1002, 1004, 1006, 1008, 1010, 1014, 1015, 1016, 1019, 1022, 1022, 1023, 1026, 1027, 1028, 1030, 1031, 1032, 1032, 1032, 1032, 1032, 1032, 1033, 1033, 1033, 1035, 1035, 1035, 1035, 1035, 1035, 1035, 1035, 1035, 1035, 1035, 1035, 1035, 1035, 1035, 1035, 1035, 1035, 1035, 1035, 1035, 1035, 1035, 1035, 1035, 1035, 1036, 1036, 1037, 1038, 1041, 1041, 1041, 1042, 1043, 1043, 1044, 1046, 1048, 1050, 1052, 1054, 1061, 1065, 1070, 1074, 1086, 1091, 1097, 1102, 1112, 1118, 1124, 1127, 1137, 1145, 1152, 1160, 1173, 1180, 1185, 1191, 1203, 1212, 1218, 1225, 1244, 1251, 1260, 1267, 1280, 1284, 1290, 1293, 1302, 1305, 1307, 1310, 1310, 1312, 1312, 1311, 1309, 1306, 1304, 1301, 1291, 1289, 1285, 1284, 1282, 1281, 1281, 1281, 1281, 1281, 1281, 1282, 1298, 1310, 1325, 1340, 1385, 1419, 1455, 1491, 1569, 1599, 1624, 1655, 1687, 1698, 1703, 1708, 1711, 1712, 1713, 1714, 1715, 1716, 1716, 1718, 1718, 1719, 1719, 1719, 1719, 1719, 1719, 1719, 1719, 1719, 1719, 1719, 1719, 1719, 1719, 1719, 1719, 1719, 1719, 1719, 1719, 1719, 1719, 1719, 1719, 1719, 1719]","[1010, 1010, 1010, 1010, 1010, 1010, 1010, 1010, 1010, 1010, 1010, 1010, 1010, 1010, 1008, 1006, 1006, 1005, 1001, 1000, 997, 996, 991, 989, 986, 983, 975, 972, 966, 962, 956, 953, 949, 944, 939, 937, 934, 928, 922, 917, 913, 909, 897, 887, 879, 869, 848, 835, 821, 807, 780, 769, 758, 745, 726, 715, 707, 698, 679, 669, 661, 654, 640, 633, 627, 622, 609, 604, 598, 591, 580, 576, 570, 566, 557, 552, 546, 540, 529, 525, 517, 510, 498, 493, 488, 481, 468, 464, 459, 452, 439, 431, 424, 417, 406, 399, 394, 388, 377, 371, 364, 359, 350, 345, 341, 338, 331, 328, 325, 320, 314, 312, 308, 306, 298, 295, 291, 287, 279, 276, 273, 270, 264, 262, 259, 256, 251, 249, 245, 241, 235, 233, 230, 228, 221, 218, 215, 213, 204, 202, 198, 194, 189, 187, 183, 180, 174, 171, 169, 164, 158, 155, 153, 149, 143, 140, 136, 133, 126, 124, 120, 118, 115, 113, 113, 111, 110, 109, 108, 106, 101, 99, 99, 99, 99, 99, 99, 99, 99, 99, 99, 99, 99, 99, 99, 98, 96, 95, 95, 94, 92, 92, 91, 90, 88, 87, 87, 87, 87, 87, 87, 87, 87, 87, 87, 87, 87, 87, 87, 87, 87, 87, 87, 87, 87, 87, 87, 87, 87, 87, 87]"
"Promise","Wie oft werden Sie die Hälfte zurückgeben?","Promise","1","undefined","14","0","5","60","1080","641","5","1","2168","0","legacy","[11, 21, 31, 41, 51, 61, 71, 81, 91, 101, 111, 121, 131, 141, 151, 161, 171, 181, 191, 201, 211, 221, 231, 241, 251, 261, 271, 281, 291, 301, 311, 321, 331, 341, 351, 361, 371, 381, 391, 401, 411, 421, 431, 441, 451, 461, 471, 481, 491, 501, 511, 521, 531, 541, 551, 561, 571, 581, 591, 601, 611, 621, 631, 641, 651, 661, 671, 681, 691, 701, 711, 721, 731, 741, 751, 761, 771, 781, 791, 801, 811, 821, 831, 841, 851, 861, 871, 881, 891, 901, 911, 921, 931, 941, 951, 961, 971, 981, 991, 1001, 1011, 1021, 1031, 1041, 1051, 1061, 1071, 1081, 1091, 1101, 1111, 1121, 1131, 1141, 1151, 1161, 1171, 1181, 1191, 1201, 1211, 1221, 1231, 1241, 1251, 1261, 1271, 1281, 1291, 1301, 1311, 1321, 1331, 1341, 1351, 1361, 1371, 1381, 1391, 1401, 1411, 1421, 1431, 1441, 1451, 1461, 1471, 1481, 1491, 1501, 1511, 1521, 1531, 1541, 1551, 1561, 1571, 1581, 1591, 1601, 1611, 1621, 1631, 1641, 1651, 1661, 1671, 1681, 1691, 1701, 1711, 1721, 1731, 1741, 1751, 1761, 1771, 1781, 1791, 1801, 1811, 1821, 1831, 1841, 1851, 1861, 1871, 1881, 1891, 1901, 1911, 1921, 1931, 1941, 1951, 1961, 1971, 1981, 1991, 2001, 2011, 2021, 2031, 2041, 2051, 2061, 2071, 2081, 2091, 2101, 2111, 2121, 2131, 2141, 2151, 2161]","1100","1920","[960, 960, 960, 960, 960, 960, 960, 960, 960, 960, 960, 960, 960, 960, 960, 960, 960, 960, 960, 960, 960, 960, 960, 960, 960, 960, 960, 960, 960, 960, 960, 960, 960, 960, 960, 960, 960, 960, 960, 960, 960, 960, 960, 960, 960, 960, 960, 961, 961, 961, 962, 964, 964, 965, 966, 969, 970, 970, 972, 975, 977, 979, 980, 984, 985, 987, 988, 990, 990, 991, 993, 995, 997, 997, 998, 1000, 1000, 1000, 1000, 1000, 1000, 1000, 1000, 1000, 1000, 1000, 1000, 1000, 1000, 1000, 1000, 1000, 1000, 1000, 1002, 1004, 1004, 1004, 1004, 1005, 1005, 1007, 1008, 1010, 1010, 1011, 1011, 1011, 1011, 1011, 1013, 1015, 1016, 1018, 1019, 1021, 1022, 1025, 1026, 1032, 1035, 1040, 1043, 1052, 1056, 1064, 1069, 1082, 1089, 1094, 1100, 1111, 1116, 1120, 1122, 1129, 1131, 1133, 1137, 1146, 1149, 1154, 1158, 1165, 1171, 1174, 1179, 1187, 1192, 1195, 1203, 1220, 1230, 1240, 1247, 1276, 1289, 1299, 1311, 1350, 1367, 1391, 1415, 1460, 1479, 1500, 1529, 1559, 1578, 1591, 1604, 1621, 1626, 1629, 1633, 1636, 1637, 1639, 1639, 1641, 1642, 1644, 1644, 1647, 1647, 1649, 1651, 1653, 1655, 1657, 1659, 1664, 1666, 1667, 1670, 1670, 1671, 1671, 1671, 1671, 1671, 1671, 1671, 1671, 1671, 1671, 1671, 1671, 1671, 1671, 1671, 1671, 1671, 1671, 1671, 1671]","[1010, 1010, 1010, 1010, 1010, 1010, 1010, 1010, 1010, 1010, 1010, 1010, 1010, 1010, 1010, 1010, 1010, 1010, 1010, 1010, 1010, 1010, 1010, 1010, 1010, 1010, 1010, 1010, 1010, 1010, 1010, 1010, 1010, 1010, 1010, 1010, 1010, 1010, 1010, 1008, 1008, 1007, 1007, 1007, 1005, 1005, 1004, 1003, 1002, 1001, 1000, 996, 995, 993, 990, 984, 982, 979, 974, 964, 957, 950, 943, 931, 926, 922, 916, 906, 902, 896, 890, 878, 873, 868, 863, 848, 843, 839, 830, 817, 810, 804, 796, 780, 771, 763, 755, 733, 721, 709, 698, 676, 665, 654, 645, 624, 614, 604, 595, 572, 561, 549, 536, 516, 504, 494, 486, 468, 460, 450, 441, 424, 415, 410, 402, 387, 381, 377, 372, 360, 355, 348, 342, 328, 323, 315, 309, 296, 289, 284, 278, 269, 265, 262, 259, 255, 253, 251, 248, 242, 239, 235, 233, 228, 224, 221, 219, 214, 211, 210, 205, 199, 194, 191, 188, 180, 176, 172, 166, 155, 154, 151, 148, 148, 148, 145, 144, 144, 144, 144, 144, 144, 144, 144, 142, 141, 141, 141, 141, 140, 139, 138, 137, 135, 135, 133, 132, 130, 128, 126, 124, 120, 118, 117, 115, 115, 114, 114, 114, 114, 114, 114, 114, 114, 114, 114, 114, 114, 114, 114, 114, 114, 114, 114, 114, 114]"
"Trust","Teilnehmer A hat Ihnen 2 Punkte übermittelt.","Payback","1","undefined","15","0","5","60","1080","321","5","1","1550","0","legacy","[11, 21, 31, 41, 51, 61, 71, 81, 91, 101, 111, 121, 131, 141, 151, 161, 171, 181, 191, 201, 211, 221, 231, 241, 251, 261, 271, 281, 291, 301, 311, 321, 331, 341, 351, 361, 371, 381, 391, 401, 411, 421, 431, 441, 451, 461, 471, 481, 491, 501, 511, 521, 531, 541, 551, 561, 571, 581, 591, 601, 611, 621, 631, 641, 651, 661, 671, 681, 691, 701, 711, 721, 731, 741, 751, 761, 771, 781, 791, 801, 811, 821, 831, 841, 851, 861, 871, 881, 891, 901, 911, 921, 931, 941, 951, 961, 971, 981, 991, 1001, 1011, 1021, 1031, 1041, 1051, 1061, 1071, 1081, 1091, 1101, 1111, 1121, 1131, 1141, 1151, 1161, 1171, 1181, 1191, 1201, 1211, 1221, 1231, 1241, 1251, 1261, 1271, 1281, 1291, 1301, 1311, 1321, 1331, 1341, 1351, 1361, 1371, 1381, 1391, 1401, 1411, 1421, 1431, 1441, 1451, 1461, 1471, 1481, 1491, 1501, 1511, 1521, 1531, 1541]","1100","1920","[960, 960, 960, 960, 960, 960, 960, 960, 960, 960, 960, 960, 960, 960, 960, 960, 960, 960, 960, 960, 960, 960, 962, 962, 965, 966, 973, 975, 978, 979, 984, 987, 991, 995, 997, 1001, 1003, 1008, 1012, 1014, 1018, 1019, 1024, 1026, 1029, 1030, 1034, 1036, 1036, 1037, 1040, 1041, 1042, 1044, 1046, 1047, 1047, 1049, 1053, 1056, 1059, 1062, 1072, 1078, 1085, 1093, 1108, 1116, 1124, 1134, 1153, 1169, 1176, 1186, 1203, 1210, 1217, 1224, 1238, 1244, 1251, 1256, 1269, 1277, 1285, 1294, 1309, 1316, 1323, 1329, 1344, 1349, 1355, 1359, 1371, 1375, 1379, 1383, 1393, 1400, 1407, 1416, 1435, 1444, 1451, 1460, 1475, 1484, 1492, 1498, 1507, 1511, 1514, 1519, 1526, 1529, 1533, 1537, 1544, 1548, 1551, 1555, 1562, 1565, 1567, 1570, 1575, 1582, 1584, 1590, 1603, 1609, 1615, 1621, 1629, 1633, 1636, 1638, 1642, 1645, 1647, 1648, 1651, 1651, 1652, 1652, 1652, 1652, 1652, 1652, 1652, 1652, 1652, 1652]","[1010, 1010, 1010, 1010, 1010, 1010, 1010, 1010, 1010, 1010, 1010, 1010, 1010, 1010, 1010, 1010, 1010, 1010, 1010, 1010, 1008, 1008, 1004, 1002, 997, 994, 980, 974, 967, 961, 946, 935, 923, 908, 880, 868, 854, 843, 821, 809, 800, 790, 773, 763, 754, 746, 729, 719, 712, 704, 689, 683, 674, 667, 653, 647, 641, 635, 619, 613, 604, 597, 578, 568, 557, 545, 523, 511, 501, 486, 462, 442, 430, 417, 393, 383, 370, 359, 335, 326, 316, 309, 290, 278, 263, 247, 224, 214, 206, 197, 183, 178, 172, 168, 157, 155, 152, 149, 143, 139, 135, 133, 125, 123, 122, 119, 117, 115, 115, 115, 115, 114, 114, 114, 114, 114, 113, 112, 110, 110, 110, 109, 108, 107, 106, 106, 106, 106, 106, 106, 106, 106, 106, 106, 106, 106, 105, 104, 103, 102, 101, 100, 100, 99, 99, 99, 99, 99, 99, 99, 99, 99, 99, 99]"
"NoTrust","Teilnehmer A hat Ihnen keine 2 Punkte übermittelt.","Payback","1","undefined","16","0","5","60","1080","321","0","1","1550","0","legacy","[11, 21, 31, 41, 51, 61, 71, 81, 91, 101, 111, 121, 131, 141, 151, 161, 171, 181, 191, 201, 211, 221, 231, 241, 251, 261, 271, 281, 291, 301, 311, 321, 331, 341, 351, 361, 371, 381, 391, 401, 411, 421, 431, 441, 451, 461, 471, 481, 491, 501, 511, 521, 531, 541, 551, 561, 571, 581, 591, 601, 611, 621, 631, 641, 651, 661, 671, 681, 691, 701, 711, 721, 731, 741, 751, 761, 771, 781, 791, 801, 811, 821, 831, 841, 851, 861, 871, 881, 891, 901, 911, 921, 931, 941, 951, 961, 971, 981, 991, 1001, 1011, 1021, 1031, 1041, 1051, 1061, 1071, 1081, 1091, 1101, 1111, 1121, 1131, 1141, 1151, 1161, 1171, 1181, 1191, 1201, 1211, 1221, 1231, 1241, 1251, 1261, 1271, 1281, 1291, 1301, 1311, 1321, 1331, 1341, 1351, 1361, 1371, 1381, 1391, 1401, 1411, 1421, 1431, 1441, 1451, 1461, 1471, 1481, 1491, 1501, 1511, 1521, 1531, 1541]","1100","1920","[960, 960, 960, 960, 960, 960, 960, 960, 960, 960, 960, 960, 960, 960, 960, 960, 960, 960, 960, 960, 960, 960, 962, 962, 965, 966, 973, 975, 978, 979, 984, 987, 991, 995, 997, 1001, 1003, 1008, 1012, 1014, 1018, 1019, 1024, 1026, 1029, 1030, 1034, 1036, 1036, 1037, 1040, 1041, 1042, 1044, 1046, 1047, 1047, 1049, 1053, 1056, 1059, 1062, 1072, 1078, 1085, 1093, 1108, 1116, 1124, 1134, 1153, 1169, 1176, 1186, 1203, 1210, 1217, 1224, 1238, 1244, 1251, 1256, 1269, 1277, 1285, 1294, 1309, 1316, 1323, 1329, 1344, 1349, 1355, 1359, 1371, 1375, 1379, 1383, 1393, 1400, 1407, 1416, 1435, 1444, 1451, 1460, 1475, 1484, 1492, 1498, 1507, 1511, 1514, 1519, 1526, 1529, 1533, 1537, 1544, 1548, 1551, 1555, 1562, 1565, 1567, 1570, 1575, 1582, 1584, 1590, 1603, 1609, 1615, 1621, 1629, 1633, 1636, 1638, 1642, 1645, 1647, 1648, 1651, 1651, 1652, 1652, 1652, 1652, 1652, 1652, 1652, 1652, 1652, 1652]","[1010, 1010, 1010, 1010, 1010, 1010, 1010, 1010, 1010, 1010, 1010, 1010, 1010, 1010, 1010, 1010, 1010, 1010, 1010, 1010, 1008, 1008, 1004, 1002, 997, 994, 980, 974, 967, 961, 946, 935, 923, 908, 880, 868, 854, 843, 821, 809, 800, 790, 773, 763, 754, 746, 729, 719, 712, 704, 689, 683, 674, 667, 653, 647, 641, 635, 619, 613, 604, 597, 578, 568, 557, 545, 523, 511, 501, 486, 462, 442, 430, 417, 393, 383, 370, 359, 335, 326, 316, 309, 290, 278, 263, 247, 224, 214, 206, 197, 183, 178, 172, 168, 157, 155, 152, 149, 143, 139, 135, 133, 125, 123, 122, 119, 117, 115, 115, 115, 115, 114, 114, 114, 114, 114, 113, 112, 110, 110, 110, 109, 108, 107, 106, 106, 106, 106, 106, 106, 106, 106, 106, 106, 106, 106, 105, 104, 103, 102, 101, 100, 100, 99, 99, 99, 99, 99, 99, 99, 99, 99, 99, 99]"
"Trust","Teilnehmer A hat Ihnen 2 Punkte übermittelt.","Payback","1","undefined","17","0","5","60","1080","481","5","1","1773","0","legacy","[11, 21, 31, 41, 51, 61, 71, 81, 91, 101, 111, 121, 131, 141, 151, 161, 171, 181, 191, 201, 211, 221, 231, 241, 251, 261, 271, 281, 291, 301, 311, 321, 331, 341, 351, 361, 371, 381, 391, 401, 411, 421, 431, 441, 451, 461, 471, 481, 491, 501, 511, 521, 531, 541, 551, 561, 571, 581, 591, 601, 611, 621, 631, 641, 651, 661, 671, 681, 691, 701, 711, 721, 731, 741, 751, 761, 771, 781, 791, 801, 811, 821, 831, 841, 851, 861, 871, 881, 891, 901, 911, 921, 931, 941, 951, 961, 971, 981, 991, 1001, 1011, 1021, 1031, 1041, 1051, 1061, 1071, 1081, 1091, 1101, 1111, 1121, 1131, 1141, 1151, 1161, 1171, 1181, 1191, 1201, 1211, 1221, 1231, 1241, 1251, 1261, 1271, 1281, 1291, 1301, 1311, 1321, 1331, 1341, 1351, 1361, 1371, 1381, 1391, 1401, 1411, 1421, 1431, 1441, 1451, 1461, 1471, 1481, 1491, 1501, 1511, 1521, 1531, 1541, 1551, 1561, 1571, 1581, 1591, 1601, 1611, 1621, 1631, 1641, 1651, 1661, 1671, 1681, 1691, 1701, 1711, 1721, 1731, 1741, 1751, 1761, 1771]","1100","1920","[960, 960, 960, 960, 960, 960, 960, 960, 960, 960, 960, 960, 960, 960, 960, 960, 960, 960, 960, 960, 960, 960, 960, 960, 960, 960, 960, 960, 960, 960, 962, 962, 962, 962, 964, 966, 970, 975, 985, 991, 1000, 1005, 1014, 1019, 1024, 1028, 1035, 1038, 1040, 1042, 1050, 1053, 1056, 1057, 1058, 1058, 1058, 1058, 1056, 1054, 1052, 1051, 1050, 1049, 1047, 1047, 1047, 1047, 1047, 1047, 1045, 1045, 1045, 1045, 1045, 1045, 1045, 1045, 1045, 1045, 1045, 1045, 1045, 1045, 1045, 1047, 1057, 1068, 1075, 1083, 1093, 1097, 1102, 1107, 1119, 1126, 1131, 1138, 1148, 1152, 1156, 1161, 1170, 1175, 1180, 1184, 1197, 1202, 1207, 1215, 1232, 1239, 1248, 1259, 1278, 1291, 1299, 1309, 1336, 1349, 1361, 1373, 1397, 1410, 1418, 1428, 1450, 1460, 1469, 1479, 1501, 1512, 1525, 1537, 1560, 1571, 1582, 1591, 1610, 1617, 1623, 1629, 1638, 1643, 1647, 1651, 1658, 1660, 1662, 1663, 1663, 1663, 1663, 1663, 1664, 1665, 1665, 1665, 1666, 1666, 1666, 1666, 1666, 1666, 1666, 1666, 1666, 1666, 1666, 1666, 1666, 1666, 1666, 1666, 1666, 1666, 1666]","[1010, 1010, 1010, 1010, 1010, 1010, 1010, 1010, 1010, 1010, 1010, 1010, 1010, 1010, 1010, 1010, 1010, 1010, 1010, 1010, 1010, 1010, 1010, 1010, 1010, 1010, 1010, 1010, 1010, 1010, 1009, 1009, 1009, 1009, 1007, 1005, 1004, 1000, 993, 989, 983, 979, 973, 970, 966, 961, 949, 939, 930, 919, 891, 880, 867, 856, 836, 825, 815, 807, 791, 783, 777, 770, 756, 746, 740, 734, 721, 714, 710, 704, 697, 693, 690, 684, 675, 669, 663, 655, 640, 632, 622, 612, 583, 567, 550, 529, 495, 473, 453, 435, 402, 390, 376, 363, 337, 324, 312, 301, 284, 276, 270, 261, 248, 240, 233, 226, 214, 209, 201, 197, 188, 185, 182, 176, 168, 163, 160, 157, 149, 146, 141, 138, 131, 126, 124, 121, 114, 113, 110, 106, 99, 97, 93, 92, 88, 88, 85, 84, 82, 82, 82, 82, 81, 80, 80, 80, 80, 80, 80, 80, 80, 80, 80, 80, 80, 78, 78, 78, 78, 78, 78, 78, 78, 78, 78, 78, 78, 78, 78, 78, 78, 78, 78, 78, 78, 78, 78]"
"Promise","Wie oft werden Sie die Hälfte zurückgeben?","Promise","0","undefined","17","0","6","60","1080","441","5","2","3208","0","legacy","[11, 21, 31, 41, 51, 61, 71, 81, 91, 101, 111, 121, 131, 141, 151, 161, 171, 181, 191, 201, 211, 221, 231, 241, 251, 261, 271, 281, 291, 301, 311, 321, 331, 341, 351, 361, 371, 381, 391, 401, 411, 421, 431, 441, 451, 461, 471, 481, 491, 501, 511, 521, 531, 541, 551, 561, 571, 581, 591, 601, 611, 621, 631, 641, 651, 661, 671, 681, 691, 701, 711, 721, 731, 741, 751, 761, 771, 781, 791, 801, 811, 821, 831, 841, 851, 861, 871, 881, 891, 901, 911, 921, 931, 941, 951, 961, 971, 981, 991, 1001, 1011, 1021, 1031, 1041, 1051, 1061, 1071, 1081, 1091, 1101, 1111, 1121, 1131, 1141, 1151, 1161, 1171, 1181, 1191, 1201, 1211, 1221, 1231, 1241, 1251, 1261, 1271, 1281, 1291, 1301, 1311, 1321, 1331, 1341, 1351, 1361, 1371, 1381, 1391, 1401, 1411, 1421, 1431, 1441, 1451, 1461, 1471, 1481, 1491, 1501, 1511, 1521, 1531, 1541, 1551, 1561, 1571, 1581, 1591, 1601, 1611, 1621, 1631, 1641, 1651, 1661, 1671, 1681, 1691, 1701, 1711, 1721, 1731, 1741, 1751, 1761, 1771, 1781, 1791, 1801, 1811, 1821, 1831, 1841, 1851, 1861, 1871, 1881, 1891, 1901, 1911, 1921, 1931, 1941, 1951, 1961, 1971, 1981, 1991, 2001, 2011, 2021, 2031, 2041, 2051, 2061, 2071, 2081, 2091, 2101, 2111, 2121, 2131, 2141, 2151, 2161, 2171, 2181, 2191, 2201, 2211, 2221, 2231, 2241, 2251, 2261, 2271, 2281, 2291, 2301, 2311, 2321, 2331, 2341, 2351, 2361, 2371, 2381, 2391, 2401, 2411, 2421, 2431, 2441, 2451, 2461, 2471, 2481, 2491, 2501, 2511, 2521, 2531, 2541, 2551, 2561, 2571, 2581, 2591, 2601, 2611, 2621, 2631, 2641, 2651, 2661, 2671, 2681, 2691, 2701, 2711, 2721, 2731, 2741, 2751, 2761, 2771, 2781, 2791, 2801, 2811, 2821, 2831, 2841, 2851, 2861, 2871, 2881, 2891, 2901, 2911, 2921, 2931, 2941, 2951, 2961, 2971, 2981, 2991, 3001, 3011, 3021, 3031, 3041, 3051, 3061, 3071, 3081, 3091, 3101, 3111, 3121, 3131, 3141, 3151, 3161, 3171, 3181, 3191, 3201]","1100","1920","[960, 960, 960, 960, 960, 960, 960, 960, 960, 960, 960, 960, 960, 960, 960, 960, 960, 960, 960, 960, 960, 960, 960, 961, 962, 963, 963, 964, 964, 964, 965, 967, 969, 971, 973, 978, 981, 984, 989, 996, 999, 1003, 1005, 1014, 1017, 1021, 1025, 1033, 1036, 1036, 1038, 1041, 1041, 1041, 1042, 1044, 1044, 1045, 1046, 1047, 1047, 1047, 1047, 1047, 1047, 1047, 1047, 1047, 1047, 1047, 1042, 1029, 1020, 1010, 1000, 986, 979, 973, 967, 955, 948, 941, 936, 925, 921, 917, 911, 903, 900, 895, 894, 885, 884, 879, 876, 869, 866, 865, 863, 859, 855, 854, 852, 847, 844, 843, 842, 838, 836, 834, 832, 830, 829, 826, 823, 816, 813, 810, 808, 805, 804, 803, 801, 799, 796, 791, 787, 775, 771, 767, 762, 751, 746, 739, 732, 718, 712, 703, 696, 676, 669, 658, 647, 627, 616, 604, 597, 597, 597, 597, 597, 596, 596, 595, 595, 594, 593, 591, 591, 589, 588, 586, 585, 584, 580, 580, 579, 576, 575, 575, 574, 573, 571, 571, 570, 569, 569, 569, 569, 576, 591, 609, 609, 609, 609, 609, 609, 609, 609, 609, 609, 609, 609, 609, 609, 609, 609, 609, 609, 609, 609, 609, 609, 609, 609, 609, 609, 609, 609, 609, 609, 609, 609, 609, 609, 609, 609, 609, 609, 609, 609, 609, 609, 609, 609, 609, 609, 609, 609, 609, 609, 609, 609, 609, 609, 609, 609, 609, 609, 609, 609, 609, 609, 609, 609, 609, 609, 609, 609, 609, 606, 597, 595, 591, 588, 581, 579, 574, 572, 560, 554, 545, 538, 519, 511, 503, 496, 476, 468, 461, 454, 434, 424, 414, 404, 389, 382, 375, 368, 357, 352, 347, 343, 336, 335, 333, 332, 328, 324, 320, 313, 303, 299, 296, 295, 294, 294, 293, 293, 292, 291, 290, 290, 286, 284, 283, 281, 279, 279, 279, 279, 279, 279, 279, 279, 279, 279, 279, 279, 279]","[1010, 1010, 1010, 1010, 1010, 1010, 1010, 1010, 1010, 1010, 1010, 1010, 1010, 1010, 1010, 1010, 1010, 1010, 1010, 1010, 1010, 1009, 1009, 1007, 1007, 1005, 1005, 1004, 1004, 1004, 1002, 1000, 998, 995, 992, 984, 981, 976, 970, 960, 955, 949, 944, 931, 923, 916, 908, 892, 886, 882, 875, 867, 864, 860, 855, 846, 842, 836, 829, 816, 807, 798, 788, 768, 760, 749, 738, 717, 706, 693, 679, 643, 623, 599, 578, 543, 530, 517, 501, 475, 460, 447, 436, 417, 412, 403, 395, 380, 372, 366, 362, 349, 346, 340, 336, 326, 323, 321, 319, 317, 313, 313, 310, 309, 308, 307, 307, 307, 307, 307, 307, 307, 307, 307, 307, 307, 306, 305, 305, 304, 303, 302, 302, 302, 299, 299, 298, 296, 295, 295, 295, 295, 295, 295, 295, 295, 294, 293, 291, 287, 284, 283, 279, 273, 271, 266, 265, 265, 265, 265, 265, 264, 264, 260, 256, 247, 241, 235, 229, 214, 209, 203, 197, 179, 170, 162, 155, 141, 137, 132, 128, 115, 109, 105, 101, 91, 87, 82, 79, 77, 77, 77, 77, 77, 77, 77, 77, 77, 77, 77, 77, 77, 77, 77, 77, 77, 77, 77, 77, 77, 77, 77, 77, 77, 77, 77, 77, 77, 77, 77, 77, 77, 77, 77, 77, 77, 77, 77, 77, 77, 77, 77, 77, 77, 77, 77, 77, 77, 77, 77, 77, 77, 77, 77, 77, 77, 77, 77, 77, 77, 77, 77, 77, 77, 77, 77, 77, 77, 77, 77, 77, 79, 79, 80, 81, 84, 85, 85, 86, 88, 89, 92, 93, 97, 98, 98, 99, 102, 103, 104, 104, 108, 108, 111, 112, 113, 113, 113, 113, 113, 113, 114, 114, 114, 115, 115, 115, 115, 115, 115, 115, 115, 115, 115, 115, 115, 115, 115, 115, 115, 115, 115, 115, 115, 114, 114, 114, 113, 113, 113, 113, 113, 113, 113, 113, 113, 113, 113, 113, 113]"
"Trust","Teilnehmer A hat Ihnen 2 Punkte übermittelt.","Payback","0","undefined","18","0","6","60","1080","231","10","2","1909","0","legacy","[11, 21, 31, 41, 51, 61, 71, 81, 91, 101, 111, 121, 131, 141, 151, 161, 171, 181, 191, 201, 211, 221, 231, 241, 251, 261, 271, 281, 291, 301, 311, 321, 331, 341, 351, 361, 371, 381, 391, 401, 411, 421, 431, 441, 451, 461, 471, 481, 491, 501, 511, 521, 531, 541, 551, 561, 571, 581, 591, 601, 611, 621, 631, 641, 651, 661, 671, 681, 691, 701, 711, 721, 731, 741, 751, 761, 771, 781, 791, 801, 811, 821, 831, 841, 851, 861, 871, 881, 891, 901, 911, 921, 931, 941, 951, 961, 971, 981, 991, 1001, 1011, 1021, 1031, 1041, 1051, 1061, 1071, 1081, 1091, 1101, 1111, 1121, 1131, 1141, 1151, 1161, 1171, 1181, 1191, 1201, 1211, 1221, 1231, 1241, 1251, 1261, 1271, 1281, 1291, 1301, 1311, 1321, 1331, 1341, 1351, 1361, 1371, 1381, 1391, 1401, 1411, 1421, 1431, 1441, 1451, 1461, 1471, 1481, 1491, 1501, 1511, 1521, 1531, 1541, 1551, 1561, 1571, 1581, 1591, 1601, 1611, 1621, 1631, 1641, 1651, 1661, 1671, 1681, 1691, 1701, 1711, 1721, 1731, 1741, 1751, 1761, 1771, 1781, 1791, 1801, 1811, 1821, 1831, 1841, 1851, 1861, 1871, 1881, 1891, 1901]","1100","1920","[960, 960, 960, 960, 960, 960, 960, 960, 960, 960, 960, 960, 960, 960, 960, 960, 960, 960, 960, 960, 960, 960, 960, 960, 960, 962, 965, 969, 970, 973, 980, 981, 985, 990, 995, 995, 996, 999, 1001, 1002, 1004, 1004, 1006, 1008, 1009, 1009, 1010, 1010, 1010, 1010, 1012, 1013, 1013, 1013, 1014, 1014, 1014, 1014, 1014, 1014, 1014, 1014, 1014, 1014, 1014, 1014, 1011, 1010, 1010, 1007, 1002, 1000, 995, 990, 983, 979, 975, 972, 965, 959, 953, 950, 939, 935, 931, 928, 924, 922, 920, 919, 912, 907, 903, 895, 881, 872, 862, 854, 833, 825, 812, 803, 773, 759, 749, 738, 717, 709, 702, 700, 695, 693, 691, 690, 687, 686, 684, 682, 676, 671, 664, 660, 648, 640, 631, 619, 595, 580, 564, 547, 515, 493, 474, 460, 441, 432, 428, 421, 415, 412, 410, 407, 402, 401, 398, 395, 389, 387, 385, 382, 374, 368, 363, 355, 344, 334, 327, 316, 296, 284, 274, 264, 245, 241, 234, 226, 217, 215, 213, 212, 211, 209, 209, 209, 209, 209, 209, 209, 209, 209, 209, 209, 209, 209, 209, 209, 209, 209, 209, 209]","[1010, 1010, 1010, 1010, 1010, 1010, 1010, 1010, 1010, 1010, 1010, 1009, 1007, 1004, 999, 996, 994, 990, 980, 970, 958, 943, 920, 909, 900, 889, 865, 850, 837, 826, 806, 801, 792, 782, 770, 764, 758, 752, 744, 739, 737, 734, 727, 724, 722, 719, 714, 713, 710, 707, 701, 698, 697, 694, 687, 686, 684, 682, 675, 669, 665, 662, 655, 650, 645, 640, 629, 624, 619, 614, 602, 597, 588, 580, 567, 562, 558, 555, 547, 545, 542, 541, 537, 536, 534, 533, 532, 532, 532, 532, 530, 529, 528, 525, 522, 519, 514, 512, 507, 506, 502, 498, 477, 468, 459, 451, 436, 432, 428, 425, 421, 418, 417, 415, 411, 410, 407, 403, 396, 390, 383, 377, 360, 351, 342, 331, 305, 293, 279, 266, 241, 226, 218, 209, 197, 195, 191, 188, 185, 183, 183, 182, 180, 180, 179, 178, 176, 176, 175, 174, 173, 171, 171, 169, 166, 164, 160, 158, 150, 148, 145, 142, 134, 131, 127, 123, 117, 115, 113, 112, 110, 109, 109, 108, 108, 108, 108, 108, 108, 108, 108, 108, 108, 108, 108, 108, 108, 108, 108, 108]"
"Trust","Teilnehmer A hat Ihnen 2 Punkte übermittelt.","Payback","1","undefined","19","0","6","60","1080","621","5","1","2132","0","legacy","[11, 21, 31, 41, 51, 61, 71, 81, 91, 101, 111, 121, 131, 141, 151, 161, 171, 181, 191, 201, 211, 221, 231, 241, 251, 261, 271, 281, 291, 301, 311, 321, 331, 341, 351, 361, 371, 381, 391, 401, 411, 421, 431, 441, 451, 461, 471, 481, 491, 501, 511, 521, 531, 541, 551, 561, 571, 581, 591, 601, 611, 621, 631, 641, 651, 661, 671, 681, 691, 701, 711, 721, 731, 741, 751, 761, 771, 781, 791, 801, 811, 821, 831, 841, 851, 861, 871, 881, 891, 901, 911, 921, 931, 941, 951, 961, 971, 981, 991, 1001, 1011, 1021, 1031, 1041, 1051, 1061, 1071, 1081, 1091, 1101, 1111, 1121, 1131, 1141, 1151, 1161, 1171, 1181, 1191, 1201, 1211, 1221, 1231, 1241, 1251, 1261, 1271, 1281, 1291, 1301, 1311, 1321, 1331, 1341, 1351, 1361, 1371, 1381, 1391, 1401, 1411, 1421, 1431, 1441, 1451, 1461, 1471, 1481, 1491, 1501, 1511, 1521, 1531, 1541, 1551, 1561, 1571, 1581, 1591, 1601, 1611, 1621, 1631, 1641, 1651, 1661, 1671, 1681, 1691, 1701, 1711, 1721, 1731, 1741, 1751, 1761, 1771, 1781, 1791, 1801, 1811, 1821, 1831, 1841, 1851, 1861, 1871, 1881, 1891, 1901, 1911, 1921, 1931, 1941, 1951, 1961, 1971, 1981, 1991, 2001, 2011, 2021, 2031, 2041, 2051, 2061, 2071, 2081, 2091, 2101, 2111, 2121, 2131]","1100","1920","[960, 960, 960, 960, 960, 960, 960, 960, 960, 960, 960, 960, 960, 960, 960, 960, 960, 960, 960, 960, 960, 960, 960, 960, 960, 961, 961, 962, 962, 964, 964, 965, 966, 968, 968, 969, 969, 971, 971, 972, 972, 972, 973, 976, 976, 977, 977, 977, 977, 980, 980, 980, 980, 982, 982, 983, 984, 984, 985, 986, 987, 989, 989, 989, 989, 990, 991, 991, 991, 991, 991, 991, 991, 991, 991, 991, 991, 991, 991, 991, 991, 991, 991, 991, 991, 991, 992, 992, 993, 993, 993, 993, 993, 993, 993, 993, 993, 993, 993, 991, 985, 976, 969, 965, 959, 948, 943, 939, 933, 927, 922, 920, 916, 914, 914, 914, 914, 916, 916, 919, 922, 929, 934, 939, 944, 953, 957, 960, 963, 969, 973, 976, 980, 988, 993, 996, 1003, 1014, 1018, 1026, 1036, 1061, 1074, 1091, 1109, 1162, 1187, 1213, 1229, 1255, 1265, 1270, 1275, 1283, 1286, 1291, 1293, 1302, 1305, 1310, 1314, 1326, 1329, 1334, 1344, 1356, 1365, 1371, 1382, 1398, 1408, 1419, 1431, 1459, 1474, 1488, 1505, 1529, 1544, 1557, 1569, 1591, 1601, 1611, 1620, 1633, 1640, 1646, 1649, 1656, 1660, 1664, 1669, 1676, 1678, 1680, 1680, 1683, 1685, 1685, 1685, 1686, 1686, 1686, 1686, 1686, 1686, 1686, 1686, 1686, 1686, 1686, 1686]","[1010, 1010, 1010, 1010, 1010, 1010, 1010, 1010, 1010, 1010, 1010, 1010, 1010, 1010, 1010, 1010, 1010, 1010, 1010, 1010, 1010, 1010, 1010, 1010, 1010, 1010, 1010, 1010, 1010, 1009, 1009, 1008, 1006, 1004, 1002, 1002, 1000, 998, 997, 996, 995, 990, 988, 983, 981, 976, 973, 972, 970, 966, 965, 963, 962, 959, 956, 955, 953, 949, 948, 944, 940, 929, 919, 910, 907, 900, 895, 888, 879, 858, 851, 847, 843, 838, 835, 830, 827, 820, 817, 814, 810, 803, 800, 798, 795, 789, 787, 784, 781, 777, 773, 770, 768, 759, 755, 750, 744, 729, 721, 711, 700, 682, 671, 661, 651, 628, 617, 607, 595, 575, 563, 548, 529, 491, 476, 463, 451, 430, 422, 412, 402, 382, 372, 361, 352, 338, 332, 327, 321, 313, 308, 303, 298, 290, 285, 281, 276, 268, 265, 262, 257, 253, 250, 250, 248, 233, 227, 224, 222, 218, 216, 215, 214, 211, 209, 207, 206, 202, 200, 199, 197, 192, 191, 188, 185, 179, 175, 172, 170, 163, 162, 161, 159, 155, 154, 150, 149, 144, 143, 142, 139, 137, 134, 133, 132, 129, 128, 128, 127, 125, 125, 124, 124, 123, 121, 121, 120, 120, 120, 119, 119, 119, 119, 119, 119, 119, 119, 119, 119, 119, 119, 119, 119]"
"Trust","Teilnehmer A hat Ihnen 2 Punkte übermittelt.","Payback","0","undefined","20","0","6","60","1080","671","10","2","4155","0","legacy","[11, 21, 31, 41, 51, 61, 71, 81, 91, 101, 111, 121, 131, 141, 151, 161, 171, 181, 191, 201, 211, 221, 231, 241, 251, 261, 271, 281, 291, 301, 311, 321, 331, 341, 351, 361, 371, 381, 391, 401, 411, 421, 431, 441, 451, 461, 471, 481, 491, 501, 511, 521, 531, 541, 551, 561, 571, 581, 591, 601, 611, 621, 631, 641, 651, 661, 671, 681, 691, 701, 711, 721, 731, 741, 751, 761, 771, 781, 791, 801, 811, 821, 831, 841, 851, 861, 871, 881, 891, 901, 911, 921, 931, 941, 951, 961, 971, 981, 991, 1001, 1011, 1021, 1031, 1041, 1051, 1061, 1071, 1081, 1091, 1101, 1111, 1121, 1131, 1141, 1151, 1161, 1171, 1181, 1191, 1201, 1211, 1221, 1231, 1241, 1251, 1261, 1271, 1281, 1291, 1301, 1311, 1321, 1331, 1341, 1351, 1361, 1371, 1381, 1391, 1401, 1411, 1421, 1431, 1441, 1451, 1461, 1471, 1481, 1491, 1501, 1511, 1521, 1531, 1541, 1551, 1561, 1571, 1581, 1591, 1601, 1611, 1621, 1631, 1641, 1651, 1661, 1671, 1681, 1691, 1701, 1711, 1721, 1731, 1741, 1751, 1761, 1771, 1781, 1791, 1801, 1811, 1821, 1831, 1841, 1851, 1861, 1871, 1881, 1891, 1901, 1911, 1921, 1931, 1941, 1951, 1961, 1971, 1981, 1991, 2001, 2011, 2021, 2031, 2041, 2051, 2061, 2071, 2081, 2091, 2101, 2111, 2121, 2131, 2141, 2151, 2161, 2171, 2181, 2191, 2201, 2211, 2221, 2231, 2241, 2251, 2261, 2271, 2281, 2291, 2301, 2311, 2321, 2331, 2341, 2351, 2361, 2371, 2381, 2391, 2401, 2411, 2421, 2431, 2441, 2451, 2461, 2471, 2481, 2491, 2501, 2511, 2521, 2531, 2541, 2551, 2561, 2571, 2581, 2591, 2601, 2611, 2621, 2631, 2641, 2651, 2661, 2671, 2681, 2691, 2701, 2711, 2721, 2731, 2741, 2751, 2761, 2771, 2781, 2791, 2801, 2811, 2821, 2831, 2841, 2851, 2861, 2871, 2881, 2891, 2901, 2911, 2921, 2931, 2941, 2951, 2961, 2971, 2981, 2991, 3001, 3011, 3021, 3031, 3041, 3051, 3061, 3071, 3081, 3091, 3101, 3111, 3121, 3131, 3141, 3151, 3161, 3171, 3181, 3191, 3201, 3211, 3221, 3231, 3241, 3251, 3261, 3271, 3281, 3291, 3301, 3311, 3321, 3331, 3341, 3351, 3361, 3371, 3381, 3391, 3401, 3411, 3421, 3431, 3441, 3451, 3461, 3471, 3481, 3491, 3501, 3511, 3521, 3531, 3541, 3551, 3561, 3571, 3581, 3591, 3601, 3611, 3621, 3631, 3641, 3651, 3661, 3671, 3681, 3691, 3701, 3711, 3721, 3731, 3741, 3751, 3761, 3771, 3781, 3791, 3801, 3811, 3821, 3831, 3841, 3851, 3861, 3871, 3881, 3891, 3901, 3911, 3921, 3931, 3941, 3951, 3961, 3971, 3981, 3991, 4001, 4011, 4021, 4031, 4041, 4051, 4061, 4071, 4081, 4091, 4101, 4111, 4121, 4131, 4141, 4151]","1100","1920","[960, 960, 960, 960, 960, 960, 960, 960, 960, 960, 960, 960, 960, 960, 960, 960, 960, 960, 960, 960, 960, 960, 960, 960, 960, 960, 960, 960, 960, 960, 960, 960, 960, 960, 960, 960, 960, 960, 959, 959, 957, 957, 957, 957, 955, 955, 955, 954, 954, 954, 954, 954, 954, 953, 952, 952, 952, 952, 952, 952, 952, 952, 951, 951, 951, 951, 951, 951, 951, 951, 951, 951, 954, 954, 956, 958, 961, 963, 964, 965, 970, 970, 971, 973, 976, 979, 980, 982, 985, 986, 986, 988, 989, 992, 992, 993, 995, 996, 997, 998, 1000, 1001, 1002, 1002, 1002, 1005, 1006, 1008, 1009, 1010, 1010, 1010, 1010, 1010, 1010, 1010, 1010, 1010, 1010, 1009, 1007, 1003, 1000, 998, 994, 985, 982, 975, 970, 959, 954, 949, 947, 936, 932, 927, 922, 916, 913, 911, 908, 901, 896, 890, 883, 866, 860, 854, 847, 838, 837, 835, 834, 831, 831, 829, 827, 825, 823, 823, 822, 821, 819, 819, 819, 819, 819, 818, 818, 818, 818, 819, 820, 825, 827, 829, 832, 836, 838, 840, 842, 846, 847, 849, 851, 854, 854, 856, 858, 860, 861, 863, 864, 867, 868, 869, 871, 874, 876, 877, 878, 879, 880, 880, 881, 883, 884, 884, 884, 886, 886, 887, 888, 890, 890, 892, 894, 896, 897, 898, 900, 902, 904, 904, 905, 906, 907, 907, 907, 908, 908, 908, 908, 908, 908, 908, 908, 908, 908, 907, 905, 903, 903, 902, 902, 901, 900, 900, 899, 898, 898, 896, 896, 894, 893, 893, 892, 891, 891, 891, 890, 888, 888, 886, 886, 882, 879, 878, 874, 870, 866, 863, 860, 854, 851, 850, 848, 842, 840, 836, 832, 821, 815, 809, 802, 789, 779, 769, 758, 737, 727, 718, 707, 690, 684, 677, 670, 661, 658, 656, 654, 652, 651, 651, 650, 647, 644, 642, 639, 630, 626, 623, 618, 607, 603, 596, 590, 580, 573, 568, 563, 553, 548, 544, 539, 530, 525, 517, 511, 500, 496, 490, 486, 480, 476, 475, 471, 465, 461, 455, 451, 440, 433, 427, 419, 406, 399, 392, 386, 377, 374, 370, 368, 363, 361, 359, 355, 351, 346, 344, 341, 338, 336, 335, 333, 332, 330, 330, 328, 326, 325, 324, 323, 323, 323, 323, 323, 323, 323, 323, 323, 323, 323, 323, 323, 323, 320, 317, 314, 303, 300, 294, 289, 284, 282, 280, 280, 279, 279, 279, 279, 279, 279, 279, 279, 279, 279, 279, 279, 279, 279, 279, 279, 279, 279]","[1010, 1010, 1010, 1010, 1010, 1010, 1010, 1010, 1010, 1010, 1010, 1010, 1010, 1010, 1010, 1010, 1010, 1010, 1010, 1010, 1010, 1010, 1010, 1010, 1010, 1010, 1010, 1010, 1010, 1010, 1010, 1010, 1010, 1010, 1010, 1010, 1006, 1003, 999, 996, 988, 983, 979, 977, 971, 969, 967, 965, 961, 961, 959, 958, 956, 955, 954, 953, 952, 951, 950, 949, 947, 946, 945, 943, 942, 940, 939, 937, 932, 929, 928, 925, 916, 915, 912, 908, 900, 895, 893, 891, 883, 882, 880, 878, 874, 871, 868, 867, 862, 860, 859, 855, 853, 849, 848, 845, 839, 837, 834, 832, 827, 820, 817, 814, 809, 801, 798, 793, 790, 783, 778, 776, 774, 768, 765, 763, 760, 756, 753, 748, 745, 738, 732, 729, 723, 714, 709, 702, 697, 688, 684, 680, 678, 670, 666, 663, 659, 655, 653, 651, 650, 643, 638, 631, 622, 601, 592, 582, 572, 561, 558, 555, 554, 548, 546, 542, 538, 533, 531, 529, 526, 523, 521, 520, 518, 515, 514, 513, 512, 511, 509, 508, 504, 498, 495, 493, 490, 486, 484, 483, 481, 477, 476, 474, 472, 469, 468, 467, 465, 462, 461, 459, 458, 455, 453, 452, 450, 444, 443, 440, 440, 436, 436, 434, 434, 430, 430, 430, 429, 427, 427, 426, 425, 423, 421, 419, 417, 414, 413, 410, 409, 404, 401, 399, 398, 395, 392, 390, 387, 382, 379, 376, 373, 367, 364, 360, 356, 341, 334, 327, 322, 314, 312, 309, 309, 306, 304, 304, 303, 301, 299, 297, 297, 293, 292, 292, 290, 290, 289, 289, 287, 286, 285, 284, 284, 282, 280, 280, 277, 276, 273, 272, 272, 269, 268, 267, 267, 265, 264, 262, 261, 256, 255, 254, 251, 247, 244, 238, 232, 219, 212, 207, 201, 192, 189, 185, 183, 179, 178, 177, 176, 176, 176, 176, 176, 176, 176, 175, 175, 173, 172, 172, 171, 169, 169, 168, 168, 166, 164, 164, 163, 162, 161, 159, 158, 157, 156, 153, 153, 149, 148, 146, 145, 142, 140, 139, 137, 133, 130, 126, 124, 116, 111, 106, 101, 92, 88, 83, 79, 72, 69, 67, 66, 62, 61, 59, 57, 53, 53, 51, 50, 50, 50, 50, 50, 49, 49, 49, 49, 50, 51, 52, 52, 52, 52, 52, 52, 52, 52, 52, 52, 52, 52, 52, 52, 52, 52, 53, 55, 58, 59, 62, 64, 66, 66, 67, 67, 68, 68, 68, 68, 68, 68, 68, 68, 68, 68, 68, 68, 68, 68, 68, 68, 68, 68]"
"Promise","Wie oft werden Sie die Hälfte zurückgeben?","Promise","1","undefined","20","0","7","60","1080","501","10","1","1935","0","legacy","[11, 21, 31, 41, 51, 61, 71, 81, 91, 101, 111, 121, 131, 141, 151, 161, 171, 181, 191, 201, 211, 221, 231, 241, 251, 261, 271, 281, 291, 301, 311, 321, 331, 341, 351, 361, 371, 381, 391, 401, 411, 421, 431, 441, 451, 461, 471, 481, 491, 501, 511, 521, 531, 541, 551, 561, 571, 581, 591, 601, 611, 621, 631, 641, 651, 661, 671, 681, 691, 701, 711, 721, 731, 741, 751, 761, 771, 781, 791, 801, 811, 821, 831, 841, 851, 861, 871, 881, 891, 901, 911, 921, 931, 941, 951, 961, 971, 981, 991, 1001, 1011, 1021, 1031, 1041, 1051, 1061, 1071, 1081, 1091, 1101, 1111, 1121, 1131, 1141, 1151, 1161, 1171, 1181, 1191, 1201, 1211, 1221, 1231, 1241, 1251, 1261, 1271, 1281, 1291, 1301, 1311, 1321, 1331, 1341, 1351, 1361, 1371, 1381, 1391, 1401, 1411, 1421, 1431, 1441, 1451, 1461, 1471, 1481, 1491, 1501, 1511, 1521, 1531, 1541, 1551, 1561, 1571, 1581, 1591, 1601, 1611, 1621, 1631, 1641, 1651, 1661, 1671, 1681, 1691, 1701, 1711, 1721, 1731, 1741, 1751, 1761, 1771, 1781, 1791, 1801, 1811, 1821, 1831, 1841, 1851, 1861, 1871, 1881, 1891, 1901, 1911, 1921, 1931]","1100","1920","[960, 960, 960, 960, 960, 960, 960, 960, 960, 960, 960, 960, 960, 960, 960, 960, 960, 960, 960, 960, 960, 960, 960, 960, 960, 960, 960, 960, 960, 960, 960, 960, 960, 960, 961, 962, 962, 962, 962, 962, 962, 962, 962, 962, 962, 962, 962, 962, 962, 962, 962, 962, 962, 962, 962, 961, 961, 961, 960, 956, 956, 955, 954, 951, 949, 948, 945, 943, 942, 941, 941, 941, 940, 940, 940, 940, 940, 940, 940, 940, 940, 940, 940, 940, 940, 943, 943, 945, 948, 949, 951, 955, 958, 962, 964, 968, 972, 974, 976, 982, 984, 988, 993, 1004, 1007, 1011, 1015, 1026, 1031, 1038, 1045, 1060, 1066, 1072, 1081, 1101, 1115, 1127, 1137, 1157, 1168, 1177, 1189, 1212, 1224, 1237, 1249, 1265, 1275, 1284, 1295, 1320, 1338, 1351, 1362, 1400, 1415, 1433, 1454, 1484, 1495, 1508, 1521, 1535, 1542, 1551, 1557, 1565, 1570, 1576, 1581, 1590, 1597, 1599, 1603, 1607, 1607, 1609, 1610, 1612, 1614, 1615, 1616, 1619, 1621, 1623, 1624, 1627, 1629, 1630, 1632, 1634, 1635, 1638, 1640, 1643, 1646, 1648, 1648, 1651, 1652, 1652, 1652, 1652, 1652, 1652, 1652, 1652, 1652, 1652, 1652, 1652, 1652]","[1010, 1010, 1010, 1010, 1010, 1010, 1010, 1010, 1010, 1010, 1010, 1010, 1010, 1010, 1010, 1010, 1010, 1010, 1010, 1010, 1010, 1010, 1010, 1010, 1010, 1010, 1010, 1008, 1006, 1005, 1003, 1001, 999, 996, 992, 984, 979, 974, 970, 964, 961, 958, 956, 951, 949, 946, 944, 941, 940, 938, 936, 933, 931, 929, 928, 921, 918, 916, 912, 905, 902, 898, 893, 881, 873, 866, 856, 841, 834, 824, 816, 794, 786, 776, 769, 752, 745, 738, 731, 718, 712, 706, 698, 683, 678, 672, 668, 657, 650, 646, 639, 627, 620, 612, 608, 600, 594, 590, 586, 575, 571, 565, 556, 540, 531, 523, 514, 496, 488, 476, 465, 441, 431, 422, 412, 391, 378, 368, 359, 342, 333, 325, 314, 297, 289, 280, 273, 261, 255, 251, 244, 228, 220, 212, 205, 189, 181, 174, 166, 153, 147, 144, 138, 133, 131, 129, 127, 123, 121, 119, 118, 116, 114, 114, 114, 113, 113, 113, 112, 112, 111, 110, 110, 109, 109, 109, 109, 107, 106, 106, 106, 105, 105, 105, 103, 103, 103, 103, 103, 103, 102, 102, 102, 102, 102, 102, 102, 102, 102, 102, 102, 102, 102]"
"Trust","Teilnehmer A hat Ihnen 2 Punkte übermittelt.","Payback","1","undefined","21","0","7","60","1080","471","5","1","2445","0","legacy","[11, 21, 31, 41, 51, 61, 71, 81, 91, 101, 111, 121, 131, 141, 151, 161, 171, 181, 191, 201, 211, 221, 231, 241, 251, 261, 271, 281, 291, 301, 311, 321, 331, 341, 351, 361, 371, 381, 391, 401, 411, 421, 431, 441, 451, 461, 471, 481, 491, 501, 511, 521, 531, 541, 551, 561, 571, 581, 591, 601, 611, 621, 631, 641, 651, 661, 671, 681, 691, 701, 711, 721, 731, 741, 751, 761, 771, 781, 791, 801, 811, 821, 831, 841, 851, 861, 871, 881, 891, 901, 911, 921, 931, 941, 951, 961, 971, 981, 991, 1001, 1011, 1021, 1031, 1041, 1051, 1061, 1071, 1081, 1091, 1101, 1111, 1121, 1131, 1141, 1151, 1161, 1171, 1181, 1191, 1201, 1211, 1221, 1231, 1241, 1251, 1261, 1271, 1281, 1291, 1301, 1311, 1321, 1331, 1341, 1351, 1361, 1371, 1381, 1391, 1401, 1411, 1421, 1431, 1441, 1451, 1461, 1471, 1481, 1491, 1501, 1511, 1521, 1531, 1541, 1551, 1561, 1571, 1581, 1591, 1601, 1611, 1621, 1631, 1641, 1651, 1661, 1671, 1681, 1691, 1701, 1711, 1721, 1731, 1741, 1751, 1761, 1771, 1781, 1791, 1801, 1811, 1821, 1831, 1841, 1851, 1861, 1871, 1881, 1891, 1901, 1911, 1921, 1931, 1941, 1951, 1961, 1971, 1981, 1991, 2001, 2011, 2021, 2031, 2041, 2051, 2061, 2071, 2081, 2091, 2101, 2111, 2121, 2131, 2141, 2151, 2161, 2171, 2181, 2191, 2201, 2211, 2221, 2231, 2241, 2251, 2261, 2271, 2281, 2291, 2301, 2311, 2321, 2331, 2341, 2351, 2361, 2371, 2381, 2391, 2401, 2411, 2421, 2431, 2441]","1100","1920","[960, 960, 960, 960, 960, 960, 960, 960, 960, 960, 960, 960, 960, 960, 960, 960, 960, 960, 960, 960, 960, 960, 960, 960, 960, 960, 960, 960, 960, 960, 960, 960, 960, 960, 960, 960, 960, 960, 960, 960, 960, 960, 959, 959, 959, 959, 959, 959, 959, 959, 959, 959, 959, 959, 959, 959, 959, 960, 961, 961, 962, 962, 966, 966, 968, 968, 971, 971, 972, 973, 976, 977, 979, 982, 984, 986, 987, 989, 994, 998, 1000, 1004, 1008, 1010, 1011, 1014, 1019, 1021, 1024, 1025, 1030, 1031, 1034, 1036, 1041, 1044, 1044, 1045, 1048, 1050, 1051, 1053, 1058, 1060, 1063, 1065, 1072, 1075, 1077, 1083, 1091, 1097, 1102, 1109, 1117, 1122, 1125, 1129, 1138, 1142, 1147, 1152, 1160, 1166, 1172, 1178, 1188, 1192, 1193, 1198, 1208, 1212, 1217, 1221, 1232, 1234, 1237, 1240, 1248, 1252, 1255, 1260, 1267, 1272, 1276, 1279, 1284, 1285, 1288, 1290, 1299, 1306, 1311, 1319, 1334, 1342, 1349, 1356, 1374, 1381, 1388, 1398, 1410, 1414, 1417, 1423, 1442, 1451, 1461, 1472, 1488, 1494, 1502, 1505, 1512, 1516, 1518, 1519, 1523, 1524, 1526, 1526, 1531, 1531, 1535, 1539, 1542, 1544, 1546, 1548, 1553, 1555, 1557, 1558, 1564, 1565, 1569, 1574, 1585, 1590, 1595, 1598, 1605, 1611, 1615, 1618, 1623, 1625, 1626, 1628, 1634, 1636, 1639, 1641, 1645, 1646, 1646, 1647, 1648, 1648, 1648, 1648, 1648, 1648, 1648, 1648, 1648, 1648, 1648, 1648, 1648, 1648, 1648, 1648, 1648, 1648, 1648, 1648, 1648, 1648, 1648, 1648, 1648, 1648]","[1010, 1010, 1010, 1010, 1010, 1010, 1010, 1010, 1010, 1010, 1010, 1010, 1010, 1010, 1010, 1010, 1010, 1010, 1010, 1010, 1010, 1010, 1010, 1010, 1010, 1010, 1010, 1010, 1010, 1010, 1009, 1007, 1003, 1000, 995, 993, 990, 988, 978, 973, 968, 964, 954, 950, 946, 941, 932, 927, 922, 919, 909, 902, 898, 894, 886, 881, 876, 871, 864, 862, 857, 850, 839, 833, 826, 818, 802, 795, 788, 778, 760, 749, 738, 728, 708, 697, 687, 679, 660, 652, 642, 632, 616, 610, 602, 596, 582, 576, 571, 565, 554, 549, 541, 537, 526, 521, 518, 512, 503, 499, 494, 490, 478, 472, 466, 460, 449, 443, 439, 432, 419, 413, 408, 402, 393, 388, 385, 379, 369, 364, 359, 354, 346, 339, 335, 331, 323, 320, 318, 315, 307, 304, 301, 299, 291, 290, 287, 286, 281, 279, 278, 274, 270, 268, 265, 264, 261, 260, 258, 257, 252, 250, 247, 245, 241, 239, 237, 235, 230, 228, 226, 222, 219, 219, 217, 215, 206, 201, 195, 188, 182, 178, 173, 172, 167, 165, 163, 162, 160, 158, 157, 157, 155, 154, 153, 151, 149, 148, 146, 146, 145, 144, 143, 143, 141, 141, 139, 138, 135, 133, 130, 128, 126, 124, 121, 120, 119, 117, 116, 116, 112, 111, 109, 108, 106, 105, 105, 104, 104, 104, 104, 104, 103, 103, 103, 103, 103, 103, 103, 103, 103, 103, 103, 103, 103, 103, 103, 103, 103, 103, 103, 103, 103, 103]"
"Trust","Teilnehmer A hat Ihnen 2 Punkte übermittelt.","Payback","1","undefined","22","0","7","60","1080","291","5","1","2428","0","legacy","[11, 21, 31, 41, 51, 61, 71, 81, 91, 101, 111, 121, 131, 141, 151, 161, 171, 181, 191, 201, 211, 221, 231, 241, 251, 261, 271, 281, 291, 301, 311, 321, 331, 341, 351, 361, 371, 381, 391, 401, 411, 421, 431, 441, 451, 461, 471, 481, 491, 501, 511, 521, 531, 541, 551, 561, 571, 581, 591, 601, 611, 621, 631, 641, 651, 661, 671, 681, 691, 701, 711, 721, 731, 741, 751, 761, 771, 781, 791, 801, 811, 821, 831, 841, 851, 861, 871, 881, 891, 901, 911, 921, 931, 941, 951, 961, 971, 981, 991, 1001, 1011, 1021, 1031, 1041, 1051, 1061, 1071, 1081, 1091, 1101, 1111, 1121, 1131, 1141, 1151, 1161, 1171, 1181, 1191, 1201, 1211, 1221, 1231, 1241, 1251, 1261, 1271, 1281, 1291, 1301, 1311, 1321, 1331, 1341, 1351, 1361, 1371, 1381, 1391, 1401, 1411, 1421, 1431, 1441, 1451, 1461, 1471, 1481, 1491, 1501, 1511, 1521, 1531, 1541, 1551, 1561, 1571, 1581, 1591, 1601, 1611, 1621, 1631, 1641, 1651, 1661, 1671, 1681, 1691, 1701, 1711, 1721, 1731, 1741, 1751, 1761, 1771, 1781, 1791, 1801, 1811, 1821, 1831, 1841, 1851, 1861, 1871, 1881, 1891, 1901, 1911, 1921, 1931, 1941, 1951, 1961, 1971, 1981, 1991, 2001, 2011, 2021, 2031, 2041, 2051, 2061, 2071, 2081, 2091, 2101, 2111, 2121, 2131, 2141, 2151, 2161, 2171, 2181, 2191, 2201, 2211, 2221, 2231, 2241, 2251, 2261, 2271, 2281, 2291, 2301, 2311, 2321, 2331, 2341, 2351, 2361, 2371, 2381, 2391, 2401, 2411, 2421]","1100","1920","[960, 960, 960, 960, 960, 960, 960, 960, 960, 960, 960, 961, 961, 961, 961, 962, 962, 962, 962, 962, 963, 964, 965, 965, 967, 969, 971, 972, 973, 976, 976, 976, 976, 976, 976, 976, 976, 976, 975, 974, 972, 970, 969, 967, 966, 965, 964, 962, 962, 960, 959, 956, 955, 955, 954, 954, 954, 954, 954, 954, 954, 954, 954, 956, 959, 967, 970, 973, 975, 978, 979, 979, 979, 981, 982, 983, 985, 987, 991, 993, 996, 1001, 1004, 1006, 1008, 1012, 1013, 1014, 1015, 1017, 1018, 1020, 1020, 1022, 1023, 1024, 1026, 1037, 1044, 1054, 1064, 1089, 1105, 1131, 1153, 1189, 1205, 1224, 1238, 1261, 1268, 1277, 1288, 1302, 1311, 1319, 1324, 1343, 1350, 1356, 1366, 1380, 1387, 1393, 1399, 1410, 1415, 1417, 1422, 1428, 1431, 1433, 1438, 1447, 1452, 1458, 1466, 1488, 1502, 1518, 1533, 1556, 1566, 1576, 1584, 1596, 1599, 1602, 1604, 1610, 1612, 1615, 1620, 1626, 1629, 1631, 1631, 1632, 1633, 1633, 1633, 1633, 1633, 1633, 1633, 1633, 1633, 1633, 1633, 1633, 1633, 1633, 1633, 1633, 1633, 1633, 1633, 1633, 1633, 1633, 1633, 1633, 1633, 1633, 1633, 1633, 1633, 1633, 1633, 1633, 1633, 1633, 1633, 1633, 1633, 1633, 1633, 1633, 1633, 1633, 1633, 1633, 1633, 1633, 1633, 1633, 1633, 1633, 1633, 1633, 1633, 1633, 1633, 1633, 1633, 1633, 1633, 1633, 1633, 1633, 1633, 1633, 1633, 1633, 1634, 1636, 1638, 1641, 1644, 1648, 1650, 1651, 1652, 1653, 1653, 1653, 1653, 1653, 1653, 1653, 1653, 1653]","[1010, 1010, 1010, 1010, 1010, 1010, 1009, 1005, 1003, 1001, 999, 999, 998, 998, 998, 998, 997, 997, 997, 996, 995, 994, 992, 990, 988, 975, 967, 953, 936, 882, 857, 837, 824, 799, 786, 776, 765, 742, 728, 715, 702, 684, 677, 673, 667, 654, 647, 640, 633, 618, 609, 602, 593, 577, 570, 561, 550, 530, 519, 510, 502, 487, 479, 467, 455, 434, 427, 421, 415, 408, 405, 403, 401, 397, 394, 392, 391, 381, 371, 361, 350, 329, 319, 309, 302, 290, 286, 281, 280, 274, 270, 267, 266, 264, 263, 261, 260, 251, 245, 240, 234, 227, 222, 215, 209, 199, 197, 193, 188, 179, 177, 171, 169, 165, 162, 160, 157, 149, 146, 144, 140, 133, 129, 125, 121, 114, 110, 109, 105, 100, 97, 96, 93, 89, 86, 85, 82, 78, 76, 71, 66, 61, 59, 58, 56, 54, 53, 52, 51, 50, 49, 48, 47, 45, 44, 44, 43, 43, 42, 42, 42, 42, 42, 42, 42, 42, 42, 42, 42, 42, 42, 42, 42, 42, 42, 42, 42, 42, 42, 42, 42, 42, 42, 42, 42, 42, 42, 42, 42, 42, 42, 42, 42, 42, 42, 42, 42, 42, 42, 42, 42, 42, 42, 42, 42, 42, 42, 42, 42, 42, 42, 42, 42, 42, 42, 42, 42, 42, 42, 42, 42, 42, 42, 42, 42, 42, 42, 42, 42, 42, 43, 43, 44, 44, 44, 44, 44, 44, 44, 44, 44, 44]"
"Trust","Teilnehmer A hat Ihnen 2 Punkte übermittelt.","Payback","1","undefined","23","0","7","60","1080","511","5","1","1413","0","legacy","[11, 21, 31, 41, 51, 61, 71, 81, 91, 101, 111, 121, 131, 141, 151, 161, 171, 181, 191, 201, 211, 221, 231, 241, 251, 261, 271, 281, 291, 301, 311, 321, 331, 341, 351, 361, 371, 381, 391, 401, 411, 421, 431, 441, 451, 461, 471, 481, 491, 501, 511, 521, 531, 541, 551, 561, 571, 581, 591, 601, 611, 621, 631, 641, 651, 661, 671, 681, 691, 701, 711, 721, 731, 741, 751, 761, 771, 781, 791, 801, 811, 821, 831, 841, 851, 861, 871, 881, 891, 901, 911, 921, 931, 941, 951, 961, 971, 981, 991, 1001, 1011, 1021, 1031, 1041, 1051, 1061, 1071, 1081, 1091, 1101, 1111, 1121, 1131, 1141, 1151, 1161, 1171, 1181, 1191, 1201, 1211, 1221, 1231, 1241, 1251, 1261, 1271, 1281, 1291, 1301, 1311, 1321, 1331, 1341, 1351, 1361, 1371, 1381, 1391, 1401, 1411]","1100","1920","[960, 960, 960, 960, 960, 960, 960, 960, 960, 960, 960, 960, 960, 960, 960, 960, 960, 960, 960, 960, 960, 960, 960, 960, 960, 960, 960, 960, 960, 960, 960, 960, 960, 960, 960, 960, 960, 960, 960, 960, 960, 960, 960, 960, 960, 960, 959, 959, 957, 956, 955, 955, 955, 953, 953, 953, 953, 953, 953, 953, 953, 953, 953, 953, 953, 953, 953, 953, 953, 953, 953, 953, 953, 950, 940, 934, 926, 918, 906, 898, 893, 884, 873, 868, 865, 859, 851, 848, 846, 844, 841, 841, 840, 840, 840, 840, 841, 842, 855, 864, 880, 904, 963, 1008, 1055, 1108, 1207, 1267, 1324, 1380, 1486, 1533, 1576, 1604, 1650, 1664, 1675, 1685, 1695, 1700, 1702, 1707, 1716, 1719, 1722, 1724, 1729, 1729, 1730, 1731, 1732, 1732, 1732, 1732, 1732, 1732, 1732, 1732, 1732, 1732, 1732]","[1010, 1010, 1010, 1010, 1010, 1010, 1010, 1010, 1010, 1010, 1010, 1010, 1010, 1010, 1010, 1010, 1010, 1010, 1010, 1010, 1010, 1010, 1010, 1010, 1010, 1010, 1010, 1010, 1010, 1010, 1010, 1010, 1010, 1010, 1010, 1008, 1007, 1004, 999, 996, 993, 990, 984, 981, 977, 974, 964, 958, 952, 948, 935, 932, 928, 922, 912, 906, 899, 894, 879, 869, 858, 850, 831, 822, 815, 805, 781, 766, 752, 736, 707, 690, 673, 649, 588, 568, 540, 517, 480, 464, 447, 429, 400, 384, 372, 360, 338, 331, 321, 314, 302, 298, 292, 288, 279, 276, 272, 268, 255, 247, 236, 222, 194, 176, 165, 148, 137, 126, 118, 116, 112, 112, 109, 107, 104, 101, 100, 98, 95, 92, 91, 89, 86, 83, 82, 81, 79, 79, 78, 78, 78, 78, 78, 78, 78, 78, 78, 78, 78, 78, 78]"
CHF,TotCHF,final_payoff,sum
"7.5","27.5","[5, 5, 0, 5]","15"
