Condition,PromiseStage,Stage,accuracy,avg_rt,count_decision_sequence,count_loop1,count_trial_sequence,font_size,height,init_time,payoff,response,rt,subject_nr,synth_backend,tTrajectory,time_experiment,width,xTrajectory,yTrajectory
"Promise","Wie oft werden Sie die Hälfte zurückgeben?","Promise","1","undefined","NA","0","0","60","1080","481","NA","1","3062","0","legacy","[11, 21, 31, 41, 51, 61, 71, 81, 91, 101, 111, 121, 131, 141, 151, 161, 171, 181, 191, 201, 211, 221, 231, 241, 251, 261, 271, 281, 291, 301, 311, 321, 331, 341, 351, 361, 371, 381, 391, 401, 411, 421, 431, 441, 451, 461, 471, 481, 491, 501, 511, 521, 531, 541, 551, 561, 571, 581, 591, 601, 611, 621, 631, 641, 651, 661, 671, 681, 691, 701, 711, 721, 731, 741, 751, 761, 771, 781, 791, 801, 811, 821, 831, 841, 851, 861, 871, 881, 891, 901, 911, 921, 931, 941, 951, 961, 971, 981, 991, 1001, 1011, 1021, 1031, 1041, 1051, 1061, 1071, 1081, 1091, 1101, 1111, 1121, 1131, 1141, 1151, 1161, 1171, 1181, 1191, 1201, 1211, 1221, 1231, 1241, 1251, 1261, 1271, 1281, 1291, 1301, 1311, 1321, 1331, 1341, 1351, 1361, 1371, 1381, 1391, 1401, 1411, 1421, 1431, 1441, 1451, 1461, 1471, 1481, 1491, 1501, 1511, 1521, 1531, 1541, 1551, 1561, 1571, 1581, 1591, 1601, 1611, 1621, 1631, 1641, 1651, 1661, 1671, 1681, 1691, 1701, 1711, 1721, 1731, 1741, 1751, 1761, 1771, 1781, 1791, 1801, 1811, 1821, 1831, 1841, 1851, 1861, 1871, 1881, 1891, 1901, 1911, 1921, 1931, 1941, 1951, 1961, 1971, 1981, 1991, 2001, 2011, 2021, 2031, 2041, 2051, 2061, 2071, 2081, 2091, 2101, 2111, 2121, 2131, 2141, 2151, 2161, 2171, 2181, 2191, 2201, 2211, 2221, 2231, 2241, 2251, 2261, 2271, 2281, 2291, 2301, 2311, 2321, 2331, 2341, 2351, 2361, 2371, 2381, 2391, 2401, 2411, 2421, 2431, 2441, 2451, 2461, 2471, 2481, 2491, 2501, 2511, 2521, 2531, 2541, 2551, 2561, 2571, 2581, 2591, 2601, 2611, 2621, 2631, 2641, 2651, 2661, 2671, 2681, 2691, 2701, 2711, 2721, 2731, 2741, 2751, 2761, 2771, 2781, 2791, 2801, 2811, 2821, 2831, 2841, 2851, 2861, 2871, 2881, 2891, 2901, 2911, 2921, 2931, 2941, 2951, 2961, 2971, 2981, 2991, 3001, 3011, 3021, 3031, 3041, 3051, 3061]","1138","1920","[960, 960, 960, 960, 960, 960, 960, 960, 960, 960, 960, 960, 960, 960, 960, 960, 960, 960, 960, 960, 960, 960, 960, 960, 960, 960, 960, 960, 960, 960, 960, 960, 960, 960, 960, 960, 960, 960, 960, 960, 960, 960, 960, 964, 973, 991, 1014, 1061, 1084, 1109, 1128, 1161, 1177, 1189, 1204, 1237, 1254, 1273, 1297, 1334, 1351, 1363, 1372, 1386, 1392, 1400, 1406, 1419, 1423, 1428, 1432, 1437, 1439, 1442, 1444, 1444, 1444, 1444, 1445, 1445, 1445, 1445, 1445, 1445, 1445, 1445, 1445, 1445, 1445, 1445, 1445, 1445, 1445, 1445, 1445, 1445, 1445, 1445, 1445, 1445, 1445, 1445, 1445, 1445, 1445, 1445, 1445, 1445, 1445, 1445, 1445, 1445, 1445, 1445, 1445, 1445, 1445, 1445, 1445, 1445, 1445, 1445, 1445, 1445, 1445, 1445, 1445, 1445, 1445, 1445, 1445, 1445, 1445, 1445, 1445, 1445, 1445, 1445, 1444, 1444, 1444, 1444, 1444, 1444, 1444, 1444, 1444, 1444, 1444, 1444, 1444, 1444, 1444, 1444, 1444, 1444, 1444, 1444, 1444, 1444, 1444, 1444, 1445, 1445, 1447, 1447, 1450, 1451, 1452, 1452, 1455, 1456, 1457, 1458, 1459, 1460, 1462, 1462, 1465, 1467, 1468, 1470, 1473, 1475, 1477, 1479, 1484, 1488, 1490, 1492, 1497, 1497, 1500, 1501, 1505, 1507, 1509, 1511, 1517, 1519, 1521, 1524, 1528, 1529, 1531, 1535, 1539, 1540, 1543, 1548, 1552, 1554, 1557, 1560, 1567, 1571, 1575, 1577, 1583, 1585, 1588, 1590, 1594, 1595, 1597, 1598, 1601, 1604, 1606, 1609, 1613, 1615, 1617, 1617, 1621, 1622, 1624, 1624, 1628, 1630, 1631, 1632, 1635, 1636, 1638, 1640, 1644, 1647, 1650, 1653, 1659, 1661, 1662, 1663, 1666, 1667, 1668, 1669, 1673, 1673, 1674, 1676, 1677, 1678, 1678, 1678, 1682, 1683, 1685, 1685, 1688, 1690, 1692, 1692, 1693, 1693, 1693, 1693, 1693, 1693, 1693, 1693, 1693, 1693, 1693, 1693, 1693, 1693, 1693, 1693, 1693, 1693, 1693, 1693, 1693, 1693, 1693, 1693, 1693, 1693, 1693, 1693, 1693, 1693, 1693, 1693]","[1010, 1010, 1010, 1010, 1010, 1010, 1010, 1010, 1010, 1010, 1010, 1010, 1010, 1010, 1010, 1010, 1010, 1010, 1010, 1010, 1010, 1010, 1010, 1010, 1010, 1010, 1010, 1010, 1010, 1010, 1010, 1010, 1010, 1010, 1010, 1010, 1010, 1010, 1010, 1010, 1010, 1010, 1010, 1010, 1010, 997, 977, 924, 898, 871, 850, 816, 800, 789, 771, 730, 703, 677, 646, 602, 584, 569, 559, 539, 531, 521, 512, 494, 489, 483, 479, 474, 473, 471, 470, 470, 470, 470, 468, 468, 468, 468, 468, 468, 468, 468, 468, 468, 468, 468, 468, 468, 468, 468, 468, 468, 468, 468, 468, 468, 468, 468, 468, 468, 468, 468, 468, 468, 468, 468, 468, 468, 468, 468, 468, 468, 468, 468, 468, 468, 468, 468, 468, 468, 468, 468, 468, 468, 468, 468, 468, 467, 466, 464, 462, 462, 462, 462, 460, 460, 460, 460, 460, 460, 460, 459, 459, 459, 459, 459, 458, 458, 458, 458, 456, 456, 455, 455, 452, 451, 450, 448, 446, 445, 443, 441, 437, 436, 434, 432, 428, 427, 424, 422, 419, 416, 414, 413, 407, 404, 401, 399, 395, 392, 388, 385, 379, 375, 370, 368, 363, 361, 359, 357, 352, 350, 348, 346, 338, 336, 335, 330, 326, 324, 322, 318, 313, 311, 308, 303, 299, 295, 292, 287, 278, 275, 270, 268, 260, 258, 254, 252, 247, 246, 244, 244, 238, 236, 232, 230, 225, 223, 221, 220, 216, 214, 213, 210, 205, 203, 201, 200, 196, 195, 191, 189, 182, 177, 170, 164, 155, 152, 148, 145, 140, 137, 133, 130, 124, 122, 120, 117, 114, 113, 110, 109, 103, 101, 99, 98, 93, 91, 87, 87, 85, 84, 84, 84, 84, 84, 84, 84, 84, 84, 84, 84, 84, 84, 84, 84, 84, 84, 84, 84, 84, 84, 84, 84, 84, 84, 84, 84, 84, 84, 84, 84]"
Cond,DecisionB,Stage,accuracy,avg_rt,count_decision_sequence,count_loop1,count_trial_sequence,font_size,height,init_time,payoff,response,rt,subject_nr,synth_backend,tTrajectory,time_experiment,width,xTrajectory,yTrajectory
"Trust","Teilnehmer A hat Ihnen 2 Punkte übermittelt.","Payback","1","undefined","0","0","0","60","1080","411","5","1","2420","0","legacy","[11, 21, 31, 41, 51, 61, 71, 81, 91, 101, 111, 121, 131, 141, 151, 161, 171, 181, 191, 201, 211, 221, 231, 241, 251, 261, 271, 281, 291, 301, 311, 321, 331, 341, 351, 361, 371, 381, 391, 401, 411, 421, 431, 441, 451, 461, 471, 481, 491, 501, 511, 521, 531, 541, 551, 561, 571, 581, 591, 601, 611, 621, 631, 641, 651, 661, 671, 681, 691, 701, 711, 721, 731, 741, 751, 761, 771, 781, 791, 801, 811, 821, 831, 841, 851, 861, 871, 881, 891, 901, 911, 921, 931, 941, 951, 961, 971, 981, 991, 1001, 1011, 1021, 1031, 1041, 1051, 1061, 1071, 1081, 1091, 1101, 1111, 1121, 1131, 1141, 1151, 1161, 1171, 1181, 1191, 1201, 1211, 1221, 1231, 1241, 1251, 1261, 1271, 1281, 1291, 1301, 1311, 1321, 1331, 1341, 1351, 1361, 1371, 1381, 1391, 1401, 1411, 1421, 1431, 1441, 1451, 1461, 1471, 1481, 1491, 1501, 1511, 1521, 1531, 1541, 1551, 1561, 1571, 1581, 1591, 1601, 1611, 1621, 1631, 1641, 1651, 1661, 1671, 1681, 1691, 1701, 1711, 1721, 1731, 1741, 1751, 1761, 1771, 1781, 1791, 1801, 1811, 1821, 1831, 1841, 1851, 1861, 1871, 1881, 1891, 1901, 1911, 1921, 1931, 1941, 1951, 1961, 1971, 1981, 1991, 2001, 2011, 2021, 2031, 2041, 2051, 2061, 2071, 2081, 2091, 2101, 2111, 2121, 2131, 2141, 2151, 2161, 2171, 2181, 2191, 2201, 2211, 2221, 2231, 2241, 2251, 2261, 2271, 2281, 2291, 2301, 2311, 2321, 2331, 2341, 2351, 2361, 2371, 2381, 2391, 2401, 2411]","1138","1920","[960, 960, 960, 960, 960, 960, 960, 960, 960, 960, 960, 960, 960, 960, 960, 960, 960, 960, 960, 960, 960, 960, 960, 960, 960, 960, 960, 960, 960, 960, 960, 960, 960, 960, 960, 962, 963, 966, 967, 968, 969, 973, 976, 977, 978, 980, 981, 982, 983, 987, 990, 990, 992, 996, 1000, 1001, 1004, 1009, 1011, 1014, 1017, 1026, 1030, 1036, 1041, 1056, 1067, 1080, 1090, 1117, 1131, 1143, 1158, 1189, 1203, 1216, 1230, 1259, 1272, 1287, 1299, 1331, 1346, 1366, 1382, 1421, 1442, 1463, 1478, 1504, 1514, 1523, 1531, 1543, 1551, 1556, 1558, 1565, 1567, 1569, 1571, 1573, 1574, 1574, 1575, 1577, 1578, 1578, 1580, 1583, 1583, 1585, 1586, 1591, 1592, 1595, 1596, 1600, 1603, 1604, 1606, 1611, 1612, 1614, 1615, 1619, 1620, 1622, 1623, 1626, 1627, 1628, 1630, 1631, 1631, 1632, 1633, 1633, 1634, 1634, 1635, 1636, 1636, 1638, 1638, 1640, 1641, 1642, 1643, 1645, 1647, 1649, 1651, 1655, 1659, 1660, 1663, 1667, 1671, 1672, 1674, 1675, 1677, 1677, 1679, 1680, 1682, 1682, 1684, 1687, 1690, 1692, 1695, 1700, 1702, 1705, 1707, 1711, 1712, 1712, 1712, 1713, 1713, 1713, 1713, 1713, 1713, 1713, 1713, 1713, 1713, 1713, 1713, 1713, 1713, 1713, 1713, 1713, 1713, 1713, 1713, 1713, 1713, 1713, 1713, 1713, 1713, 1713, 1713, 1713, 1713, 1713, 1713, 1713, 1713, 1713, 1713, 1713, 1713, 1713, 1713, 1713, 1713, 1713, 1713, 1713, 1713, 1713, 1713, 1713, 1713, 1713, 1713, 1713, 1713, 1713, 1713, 1713, 1713, 1713, 1713]","[1010, 1010, 1010, 1010, 1010, 1010, 1010, 1010, 1010, 1010, 1010, 1010, 1010, 1010, 1010, 1010, 1010, 1010, 1010, 1010, 1010, 1010, 1010, 1010, 1010, 1010, 1010, 1009, 1007, 1003, 1000, 998, 991, 982, 976, 970, 963, 951, 947, 942, 937, 923, 917, 913, 910, 902, 897, 893, 889, 882, 876, 873, 867, 858, 850, 846, 841, 830, 826, 818, 811, 795, 785, 775, 766, 743, 726, 708, 694, 657, 642, 627, 609, 573, 558, 543, 527, 496, 481, 465, 453, 421, 407, 389, 374, 340, 322, 303, 289, 264, 254, 245, 236, 218, 211, 204, 200, 191, 189, 184, 182, 179, 178, 177, 176, 174, 173, 171, 170, 166, 166, 164, 162, 157, 156, 152, 151, 146, 144, 141, 140, 135, 132, 131, 130, 126, 123, 122, 120, 117, 116, 115, 113, 112, 112, 111, 110, 110, 109, 109, 108, 107, 107, 107, 106, 105, 104, 104, 104, 103, 101, 101, 100, 99, 98, 97, 97, 96, 94, 94, 93, 93, 93, 93, 92, 92, 91, 91, 90, 88, 87, 86, 85, 85, 83, 82, 82, 81, 81, 81, 81, 80, 80, 80, 80, 80, 80, 80, 80, 80, 80, 80, 80, 80, 80, 80, 80, 80, 80, 80, 80, 80, 80, 80, 80, 80, 80, 80, 80, 80, 80, 80, 80, 80, 80, 80, 80, 80, 80, 80, 80, 80, 80, 80, 80, 80, 80, 80, 80, 80, 80, 80, 80, 80, 80, 80, 80, 80, 80, 80, 80]"
"NoTrust","Teilnehmer A hat Ihnen keine 2 Punkte übermittelt.","Payback","1","undefined","1","0","0","60","1080","411","0","1","2420","0","legacy","[11, 21, 31, 41, 51, 61, 71, 81, 91, 101, 111, 121, 131, 141, 151, 161, 171, 181, 191, 201, 211, 221, 231, 241, 251, 261, 271, 281, 291, 301, 311, 321, 331, 341, 351, 361, 371, 381, 391, 401, 411, 421, 431, 441, 451, 461, 471, 481, 491, 501, 511, 521, 531, 541, 551, 561, 571, 581, 591, 601, 611, 621, 631, 641, 651, 661, 671, 681, 691, 701, 711, 721, 731, 741, 751, 761, 771, 781, 791, 801, 811, 821, 831, 841, 851, 861, 871, 881, 891, 901, 911, 921, 931, 941, 951, 961, 971, 981, 991, 1001, 1011, 1021, 1031, 1041, 1051, 1061, 1071, 1081, 1091, 1101, 1111, 1121, 1131, 1141, 1151, 1161, 1171, 1181, 1191, 1201, 1211, 1221, 1231, 1241, 1251, 1261, 1271, 1281, 1291, 1301, 1311, 1321, 1331, 1341, 1351, 1361, 1371, 1381, 1391, 1401, 1411, 1421, 1431, 1441, 1451, 1461, 1471, 1481, 1491, 1501, 1511, 1521, 1531, 1541, 1551, 1561, 1571, 1581, 1591, 1601, 1611, 1621, 1631, 1641, 1651, 1661, 1671, 1681, 1691, 1701, 1711, 1721, 1731, 1741, 1751, 1761, 1771, 1781, 1791, 1801, 1811, 1821, 1831, 1841, 1851, 1861, 1871, 1881, 1891, 1901, 1911, 1921, 1931, 1941, 1951, 1961, 1971, 1981, 1991, 2001, 2011, 2021, 2031, 2041, 2051, 2061, 2071, 2081, 2091, 2101, 2111, 2121, 2131, 2141, 2151, 2161, 2171, 2181, 2191, 2201, 2211, 2221, 2231, 2241, 2251, 2261, 2271, 2281, 2291, 2301, 2311, 2321, 2331, 2341, 2351, 2361, 2371, 2381, 2391, 2401, 2411]","1138","1920","[960, 960, 960, 960, 960, 960, 960, 960, 960, 960, 960, 960, 960, 960, 960, 960, 960, 960, 960, 960, 960, 960, 960, 960, 960, 960, 960, 960, 960, 960, 960, 960, 960, 960, 960, 962, 963, 966, 967, 968, 969, 973, 976, 977, 978, 980, 981, 982, 983, 987, 990, 990, 992, 996, 1000, 1001, 1004, 1009, 1011, 1014, 1017, 1026, 1030, 1036, 1041, 1056, 1067, 1080, 1090, 1117, 1131, 1143, 1158, 1189, 1203, 1216, 1230, 1259, 1272, 1287, 1299, 1331, 1346, 1366, 1382, 1421, 1442, 1463, 1478, 1504, 1514, 1523, 1531, 1543, 1551, 1556, 1558, 1565, 1567, 1569, 1571, 1573, 1574, 1574, 1575, 1577, 1578, 1578, 1580, 1583, 1583, 1585, 1586, 1591, 1592, 1595, 1596, 1600, 1603, 1604, 1606, 1611, 1612, 1614, 1615, 1619, 1620, 1622, 1623, 1626, 1627, 1628, 1630, 1631, 1631, 1632, 1633, 1633, 1634, 1634, 1635, 1636, 1636, 1638, 1638, 1640, 1641, 1642, 1643, 1645, 1647, 1649, 1651, 1655, 1659, 1660, 1663, 1667, 1671, 1672, 1674, 1675, 1677, 1677, 1679, 1680, 1682, 1682, 1684, 1687, 1690, 1692, 1695, 1700, 1702, 1705, 1707, 1711, 1712, 1712, 1712, 1713, 1713, 1713, 1713, 1713, 1713, 1713, 1713, 1713, 1713, 1713, 1713, 1713, 1713, 1713, 1713, 1713, 1713, 1713, 1713, 1713, 1713, 1713, 1713, 1713, 1713, 1713, 1713, 1713, 1713, 1713, 1713, 1713, 1713, 1713, 1713, 1713, 1713, 1713, 1713, 1713, 1713, 1713, 1713, 1713, 1713, 1713, 1713, 1713, 1713, 1713, 1713, 1713, 1713, 1713, 1713, 1713, 1713, 1713, 1713]","[1010, 1010, 1010, 1010, 1010, 1010, 1010, 1010, 1010, 1010, 1010, 1010, 1010, 1010, 1010, 1010, 1010, 1010, 1010, 1010, 1010, 1010, 1010, 1010, 1010, 1010, 1010, 1009, 1007, 1003, 1000, 998, 991, 982, 976, 970, 963, 951, 947, 942, 937, 923, 917, 913, 910, 902, 897, 893, 889, 882, 876, 873, 867, 858, 850, 846, 841, 830, 826, 818, 811, 795, 785, 775, 766, 743, 726, 708, 694, 657, 642, 627, 609, 573, 558, 543, 527, 496, 481, 465, 453, 421, 407, 389, 374, 340, 322, 303, 289, 264, 254, 245, 236, 218, 211, 204, 200, 191, 189, 184, 182, 179, 178, 177, 176, 174, 173, 171, 170, 166, 166, 164, 162, 157, 156, 152, 151, 146, 144, 141, 140, 135, 132, 131, 130, 126, 123, 122, 120, 117, 116, 115, 113, 112, 112, 111, 110, 110, 109, 109, 108, 107, 107, 107, 106, 105, 104, 104, 104, 103, 101, 101, 100, 99, 98, 97, 97, 96, 94, 94, 93, 93, 93, 93, 92, 92, 91, 91, 90, 88, 87, 86, 85, 85, 83, 82, 82, 81, 81, 81, 81, 80, 80, 80, 80, 80, 80, 80, 80, 80, 80, 80, 80, 80, 80, 80, 80, 80, 80, 80, 80, 80, 80, 80, 80, 80, 80, 80, 80, 80, 80, 80, 80, 80, 80, 80, 80, 80, 80, 80, 80, 80, 80, 80, 80, 80, 80, 80, 80, 80, 80, 80, 80, 80, 80, 80, 80, 80, 80, 80, 80]"
"Trust","Teilnehmer A hat Ihnen 2 Punkte übermittelt.","Payback","1","undefined","2","0","0","60","1080","271","5","1","1846","0","legacy","[11, 21, 31, 41, 51, 61, 71, 81, 91, 101, 111, 121, 131, 141, 151, 161, 171, 181, 191, 201, 211, 221, 231, 241, 251, 261, 271, 281, 291, 301, 311, 321, 331, 341, 351, 361, 371, 381, 391, 401, 411, 421, 431, 441, 451, 461, 471, 481, 491, 501, 511, 521, 531, 541, 551, 561, 571, 581, 591, 601, 611, 621, 631, 641, 651, 661, 671, 681, 691, 701, 711, 721, 731, 741, 751, 761, 771, 781, 791, 801, 811, 821, 831, 841, 851, 861, 871, 881, 891, 901, 911, 921, 931, 941, 951, 961, 971, 981, 991, 1001, 1011, 1021, 1031, 1041, 1051, 1061, 1071, 1081, 1091, 1101, 1111, 1121, 1131, 1141, 1151, 1161, 1171, 1181, 1191, 1201, 1211, 1221, 1231, 1241, 1251, 1261, 1271, 1281, 1291, 1301, 1311, 1321, 1331, 1341, 1351, 1361, 1371, 1381, 1391, 1401, 1411, 1421, 1431, 1441, 1451, 1461, 1471, 1481, 1491, 1501, 1511, 1521, 1531, 1541, 1551, 1561, 1571, 1581, 1591, 1601, 1611, 1621, 1631, 1641, 1651, 1661, 1671, 1681, 1691, 1701, 1711, 1721, 1731, 1741, 1751, 1761, 1771, 1781, 1791, 1801, 1811, 1821, 1831, 1841]","1138","1920","[960, 960, 960, 960, 960, 960, 960, 960, 960, 960, 960, 960, 960, 960, 962, 962, 965, 966, 970, 973, 978, 979, 987, 993, 998, 1005, 1020, 1028, 1033, 1040, 1052, 1057, 1061, 1067, 1076, 1079, 1084, 1089, 1099, 1104, 1106, 1112, 1120, 1124, 1129, 1131, 1140, 1142, 1146, 1150, 1159, 1163, 1167, 1172, 1184, 1191, 1198, 1204, 1219, 1229, 1240, 1250, 1270, 1279, 1290, 1302, 1326, 1337, 1349, 1361, 1380, 1392, 1400, 1410, 1425, 1437, 1444, 1452, 1467, 1472, 1478, 1484, 1495, 1502, 1508, 1515, 1525, 1532, 1542, 1551, 1572, 1582, 1592, 1602, 1621, 1630, 1639, 1645, 1661, 1669, 1676, 1685, 1699, 1707, 1712, 1718, 1728, 1732, 1736, 1740, 1745, 1750, 1751, 1755, 1759, 1760, 1761, 1763, 1766, 1767, 1767, 1768, 1770, 1770, 1772, 1772, 1774, 1775, 1775, 1776, 1777, 1778, 1778, 1778, 1778, 1778, 1778, 1778, 1778, 1778, 1778, 1778, 1778, 1778, 1778, 1778, 1778, 1778, 1778, 1778, 1778, 1778, 1778, 1778, 1778, 1778, 1778, 1778, 1778, 1778, 1778, 1778, 1778, 1778, 1778, 1778, 1778, 1778, 1778, 1778, 1778, 1778, 1778, 1778, 1778, 1778, 1778, 1778, 1778, 1778, 1778, 1778, 1778, 1778]","[1010, 1010, 1010, 1010, 1010, 1010, 1010, 1010, 1010, 1010, 1010, 1010, 1010, 1010, 1010, 1010, 1007, 1007, 1003, 1001, 996, 992, 981, 975, 966, 957, 935, 924, 914, 901, 881, 872, 863, 853, 836, 828, 818, 812, 792, 783, 775, 766, 752, 745, 738, 733, 719, 715, 707, 700, 685, 679, 671, 664, 647, 637, 628, 619, 600, 588, 576, 564, 541, 532, 520, 505, 486, 477, 464, 456, 439, 428, 422, 413, 401, 393, 386, 381, 371, 367, 363, 358, 350, 347, 344, 339, 329, 324, 317, 312, 298, 290, 283, 278, 265, 260, 254, 249, 237, 232, 227, 219, 207, 200, 196, 192, 182, 179, 174, 169, 159, 154, 152, 147, 142, 139, 136, 134, 127, 126, 125, 121, 118, 115, 112, 109, 104, 101, 99, 97, 93, 91, 90, 90, 88, 87, 87, 87, 85, 85, 85, 85, 84, 84, 84, 84, 84, 84, 84, 84, 84, 84, 84, 84, 84, 84, 84, 84, 84, 84, 84, 84, 84, 84, 84, 84, 84, 84, 84, 84, 84, 84, 84, 84, 84, 84, 84, 84, 84, 84, 84, 84, 84, 84]"
"Promise","Wie oft werden Sie die Hälfte zurückgeben?","Promise","1","undefined","2","0","1","60","1080","591","5","1","1589","0","legacy","[11, 21, 31, 41, 51, 61, 71, 81, 91, 101, 111, 121, 131, 141, 151, 161, 171, 181, 191, 201, 211, 221, 231, 241, 251, 261, 271, 281, 291, 301, 311, 321, 331, 341, 351, 361, 371, 381, 391, 401, 411, 421, 431, 441, 451, 461, 471, 481, 491, 501, 511, 521, 531, 541, 551, 561, 571, 581, 591, 601, 611, 621, 631, 641, 651, 661, 671, 681, 691, 701, 711, 721, 731, 741, 751, 761, 771, 781, 791, 801, 811, 821, 831, 841, 851, 861, 871, 881, 891, 901, 911, 921, 931, 941, 951, 961, 971, 981, 991, 1001, 1011, 1021, 1031, 1041, 1051, 1061, 1071, 1081, 1091, 1101, 1111, 1121, 1131, 1141, 1151, 1161, 1171, 1181, 1191, 1201, 1211, 1221, 1231, 1241, 1251, 1261, 1271, 1281, 1291, 1301, 1311, 1321, 1331, 1341, 1351, 1361, 1371, 1381, 1391, 1401, 1411, 1421, 1431, 1441, 1451, 1461, 1471, 1481, 1491, 1501, 1511, 1521, 1531, 1541, 1551, 1561, 1571, 1581]","1138","1920","[960, 960, 960, 960, 960, 960, 960, 960, 960, 960, 960, 960, 960, 960, 960, 960, 960, 960, 960, 960, 960, 960, 960, 960, 960, 960, 960, 960, 960, 960, 960, 960, 960, 960, 960, 960, 960, 960, 960, 960, 961, 962, 963, 963, 963, 964, 964, 966, 966, 966, 968, 970, 970, 972, 976, 979, 982, 986, 995, 1000, 1006, 1011, 1022, 1027, 1034, 1040, 1057, 1067, 1076, 1084, 1105, 1112, 1121, 1130, 1151, 1163, 1173, 1183, 1204, 1219, 1235, 1253, 1286, 1302, 1317, 1333, 1364, 1383, 1399, 1413, 1449, 1463, 1481, 1497, 1530, 1544, 1558, 1573, 1597, 1606, 1615, 1622, 1636, 1642, 1648, 1653, 1663, 1669, 1672, 1677, 1685, 1690, 1692, 1697, 1704, 1705, 1707, 1711, 1717, 1720, 1724, 1726, 1731, 1734, 1736, 1739, 1743, 1745, 1746, 1747, 1748, 1748, 1748, 1748, 1748, 1748, 1748, 1748, 1748, 1748, 1748, 1748, 1748, 1748, 1748, 1748, 1748, 1748, 1748, 1748, 1748, 1748, 1748, 1748, 1748, 1748, 1748, 1748]","[1010, 1010, 1010, 1010, 1010, 1010, 1010, 1010, 1010, 1010, 1010, 1010, 1010, 1010, 1010, 1010, 1010, 1010, 1010, 1010, 1010, 1010, 1010, 1010, 1010, 1010, 1010, 1010, 1010, 1010, 1010, 1010, 1010, 1010, 1010, 1010, 1010, 1010, 1009, 1007, 1005, 1003, 1001, 999, 997, 994, 992, 989, 987, 986, 981, 978, 976, 971, 963, 959, 954, 946, 933, 926, 919, 911, 896, 887, 881, 873, 855, 846, 839, 831, 815, 808, 799, 793, 776, 765, 757, 748, 728, 718, 704, 689, 660, 644, 630, 614, 580, 559, 544, 528, 489, 474, 453, 435, 397, 381, 363, 346, 318, 308, 296, 286, 268, 258, 249, 242, 224, 214, 208, 201, 187, 180, 175, 167, 158, 154, 151, 143, 134, 129, 123, 120, 109, 104, 101, 96, 88, 84, 83, 81, 80, 79, 79, 79, 79, 79, 79, 79, 79, 79, 79, 79, 79, 79, 79, 79, 79, 79, 79, 79, 79, 79, 79, 79, 79, 79, 79, 79]"
"Trust","Teilnehmer A hat Ihnen 2 Punkte übermittelt.","Payback","1","undefined","3","0","1","60","1080","241","5","1","1661","0","legacy","[11, 21, 31, 41, 51, 61, 71, 81, 91, 101, 111, 121, 131, 141, 151, 161, 171, 181, 191, 201, 211, 221, 231, 241, 251, 261, 271, 281, 291, 301, 311, 321, 331, 341, 351, 361, 371, 381, 391, 401, 411, 421, 431, 441, 451, 461, 471, 481, 491, 501, 511, 521, 531, 541, 551, 561, 571, 581, 591, 601, 611, 621, 631, 641, 651, 661, 671, 681, 691, 701, 711, 721, 731, 741, 751, 761, 771, 781, 791, 801, 811, 821, 831, 841, 851, 861, 871, 881, 891, 901, 911, 921, 931, 941, 951, 961, 971, 981, 991, 1001, 1011, 1021, 1031, 1041, 1051, 1061, 1071, 1081, 1091, 1101, 1111, 1121, 1131, 1141, 1151, 1161, 1171, 1181, 1191, 1201, 1211, 1221, 1231, 1241, 1251, 1261, 1271, 1281, 1291, 1301, 1311, 1321, 1331, 1341, 1351, 1361, 1371, 1381, 1391, 1401, 1411, 1421, 1431, 1441, 1451, 1461, 1471, 1481, 1491, 1501, 1511, 1521, 1531, 1541, 1551, 1561, 1571, 1581, 1591, 1601, 1611, 1621, 1631, 1641, 1651, 1661]","1138","1920","[960, 960, 960, 960, 960, 960, 960, 960, 960, 960, 960, 960, 960, 960, 960, 960, 961, 961, 966, 973, 979, 988, 1007, 1021, 1030, 1042, 1071, 1085, 1101, 1115, 1136, 1145, 1154, 1162, 1176, 1182, 1189, 1195, 1209, 1214, 1220, 1226, 1239, 1247, 1250, 1258, 1277, 1285, 1294, 1302, 1321, 1329, 1340, 1348, 1367, 1376, 1384, 1391, 1405, 1413, 1420, 1425, 1437, 1443, 1448, 1455, 1473, 1483, 1491, 1501, 1520, 1528, 1537, 1543, 1559, 1567, 1574, 1580, 1594, 1600, 1607, 1612, 1625, 1630, 1636, 1641, 1652, 1658, 1664, 1669, 1680, 1685, 1690, 1695, 1706, 1710, 1715, 1720, 1730, 1734, 1739, 1742, 1750, 1755, 1760, 1764, 1772, 1776, 1780, 1785, 1795, 1800, 1802, 1806, 1815, 1819, 1822, 1826, 1831, 1834, 1835, 1837, 1838, 1838, 1838, 1838, 1838, 1838, 1838, 1838, 1838, 1838, 1838, 1838, 1838, 1838, 1838, 1838, 1838, 1838, 1838, 1838, 1838, 1838, 1838, 1838, 1836, 1831, 1828, 1826, 1820, 1819, 1817, 1817, 1816, 1816, 1816, 1816, 1816, 1816, 1816, 1816, 1816, 1816, 1816, 1816]","[1010, 1010, 1010, 1010, 1010, 1010, 1010, 1010, 1010, 1010, 1010, 1010, 1010, 1010, 1010, 1010, 1009, 1008, 997, 990, 981, 971, 950, 937, 927, 913, 881, 868, 850, 835, 814, 806, 798, 791, 774, 766, 759, 751, 735, 727, 718, 712, 697, 689, 685, 678, 661, 654, 648, 640, 620, 614, 604, 597, 580, 571, 561, 553, 536, 525, 516, 507, 491, 483, 476, 466, 440, 427, 416, 401, 375, 363, 352, 343, 322, 312, 302, 293, 275, 268, 260, 253, 237, 231, 224, 217, 205, 198, 191, 184, 172, 167, 161, 156, 143, 136, 131, 123, 113, 107, 102, 97, 87, 81, 76, 71, 60, 55, 50, 45, 33, 27, 24, 19, 8, 3, 0, 0, 0, 0, 0, 0, 0, 0, 0, 0, 0, 0, 0, 0, 0, 0, 0, 0, 0, 0, 0, 0, 0, 0, 0, 0, 0, 0, 0, 0, 6, 12, 18, 23, 32, 35, 38, 38, 39, 39, 39, 39, 39, 39, 39, 39, 39, 39, 39, 39]"
"Trust","Teilnehmer A hat Ihnen 2 Punkte übermittelt.","Payback","1","undefined","4","0","1","60","1080","301","5","1","2189","0","legacy","[11, 21, 31, 41, 51, 61, 71, 81, 91, 101, 111, 121, 131, 141, 151, 161, 171, 181, 191, 201, 211, 221, 231, 241, 251, 261, 271, 281, 291, 301, 311, 321, 331, 341, 351, 361, 371, 381, 391, 401, 411, 421, 431, 441, 451, 461, 471, 481, 491, 501, 511, 521, 531, 541, 551, 561, 571, 581, 591, 601, 611, 621, 631, 641, 651, 661, 671, 681, 691, 701, 711, 721, 731, 741, 751, 761, 771, 781, 791, 801, 811, 821, 831, 841, 851, 861, 871, 881, 891, 901, 911, 921, 931, 941, 951, 961, 971, 981, 991, 1001, 1011, 1021, 1031, 1041, 1051, 1061, 1071, 1081, 1091, 1101, 1111, 1121, 1131, 1141, 1151, 1161, 1171, 1181, 1191, 1201, 1211, 1221, 1231, 1241, 1251, 1261, 1271, 1281, 1291, 1301, 1311, 1321, 1331, 1341, 1351, 1361, 1371, 1381, 1391, 1401, 1411, 1421, 1431, 1441, 1451, 1461, 1471, 1481, 1491, 1501, 1511, 1521, 1531, 1541, 1551, 1561, 1571, 1581, 1591, 1601, 1611, 1621, 1631, 1641, 1651, 1661, 1671, 1681, 1691, 1701, 1711, 1721, 1731, 1741, 1751, 1761, 1771, 1781, 1791, 1801, 1811, 1821, 1831, 1841, 1851, 1861, 1871, 1881, 1891, 1901, 1911, 1921, 1931, 1941, 1951, 1961, 1971, 1981, 1991, 2001, 2011, 2021, 2031, 2041, 2051, 2061, 2071, 2081, 2091, 2101, 2111, 2121, 2131, 2141, 2151, 2161, 2171, 2181]","1138","1920","[960, 960, 960, 960, 960, 960, 960, 960, 960, 960, 960, 960, 960, 960, 960, 960, 960, 960, 960, 960, 960, 960, 960, 960, 963, 966, 979, 986, 993, 1000, 1016, 1021, 1031, 1038, 1058, 1069, 1077, 1088, 1106, 1125, 1143, 1160, 1186, 1199, 1212, 1219, 1235, 1240, 1245, 1251, 1259, 1264, 1268, 1272, 1280, 1284, 1288, 1292, 1299, 1302, 1305, 1310, 1319, 1324, 1328, 1332, 1343, 1348, 1354, 1359, 1371, 1378, 1385, 1390, 1403, 1408, 1416, 1422, 1433, 1436, 1442, 1447, 1460, 1468, 1477, 1486, 1509, 1520, 1530, 1542, 1565, 1576, 1588, 1598, 1615, 1621, 1627, 1632, 1641, 1646, 1648, 1650, 1653, 1657, 1659, 1660, 1663, 1665, 1667, 1671, 1677, 1677, 1681, 1683, 1688, 1689, 1693, 1694, 1698, 1700, 1701, 1703, 1705, 1707, 1707, 1708, 1709, 1710, 1710, 1710, 1710, 1710, 1710, 1710, 1710, 1710, 1710, 1710, 1710, 1710, 1710, 1710, 1710, 1710, 1710, 1710, 1710, 1710, 1710, 1710, 1710, 1710, 1710, 1710, 1710, 1710, 1710, 1710, 1710, 1710, 1710, 1710, 1710, 1710, 1710, 1710, 1710, 1710, 1710, 1710, 1710, 1710, 1710, 1710, 1710, 1710, 1710, 1710, 1710, 1710, 1710, 1710, 1710, 1710, 1710, 1710, 1710, 1710, 1710, 1710, 1710, 1710, 1710, 1710, 1710, 1710, 1710, 1710, 1710, 1710, 1710, 1710, 1710, 1710, 1710, 1710, 1710, 1710, 1710, 1710, 1710, 1710, 1710, 1710, 1710, 1710, 1710, 1710]","[1010, 1010, 1010, 1010, 1010, 1010, 1010, 1010, 1010, 1010, 1010, 1010, 1010, 1010, 1010, 1010, 1010, 1010, 1010, 1010, 1010, 1010, 1002, 998, 992, 984, 965, 956, 946, 937, 915, 905, 891, 880, 852, 837, 819, 802, 770, 742, 719, 694, 657, 642, 623, 611, 589, 581, 572, 563, 547, 539, 532, 525, 512, 507, 502, 496, 485, 478, 472, 466, 448, 441, 432, 425, 408, 401, 392, 386, 368, 361, 352, 345, 329, 321, 314, 307, 297, 292, 287, 282, 270, 264, 257, 252, 237, 230, 224, 217, 205, 199, 192, 186, 179, 177, 173, 171, 166, 163, 162, 161, 159, 156, 155, 154, 152, 151, 149, 147, 144, 143, 141, 140, 137, 136, 133, 132, 128, 126, 125, 122, 119, 117, 116, 114, 111, 110, 110, 109, 107, 106, 105, 104, 104, 104, 104, 104, 104, 104, 104, 104, 104, 104, 104, 104, 104, 104, 104, 104, 104, 104, 104, 104, 104, 104, 104, 104, 104, 104, 104, 104, 104, 104, 104, 104, 104, 104, 104, 104, 104, 104, 104, 104, 104, 104, 104, 104, 104, 104, 104, 104, 104, 104, 104, 104, 104, 104, 104, 104, 104, 104, 104, 104, 104, 104, 104, 104, 104, 104, 104, 104, 104, 104, 104, 104, 104, 104, 104, 104, 104, 104, 104, 104, 104, 104, 104, 104]"
"Trust","Teilnehmer A hat Ihnen 2 Punkte übermittelt.","Payback","1","undefined","5","0","1","60","1080","491","5","1","1812","0","legacy","[11, 21, 31, 41, 51, 61, 71, 81, 91, 101, 111, 121, 131, 141, 151, 161, 171, 181, 191, 201, 211, 221, 231, 241, 251, 261, 271, 281, 291, 301, 311, 321, 331, 341, 351, 361, 371, 381, 391, 401, 411, 421, 431, 441, 451, 461, 471, 481, 491, 501, 511, 521, 531, 541, 551, 561, 571, 581, 591, 601, 611, 621, 631, 641, 651, 661, 671, 681, 691, 701, 711, 721, 731, 741, 751, 761, 771, 781, 791, 801, 811, 821, 831, 841, 851, 861, 871, 881, 891, 901, 911, 921, 931, 941, 951, 961, 971, 981, 991, 1001, 1011, 1021, 1031, 1041, 1051, 1061, 1071, 1081, 1091, 1101, 1111, 1121, 1131, 1141, 1151, 1161, 1171, 1181, 1191, 1201, 1211, 1221, 1231, 1241, 1251, 1261, 1271, 1281, 1291, 1301, 1311, 1321, 1331, 1341, 1351, 1361, 1371, 1381, 1391, 1401, 1411, 1421, 1431, 1441, 1451, 1461, 1471, 1481, 1491, 1501, 1511, 1521, 1531, 1541, 1551, 1561, 1571, 1581, 1591, 1601, 1611, 1621, 1631, 1641, 1651, 1661, 1671, 1681, 1691, 1701, 1711, 1721, 1731, 1741, 1751, 1761, 1771, 1781, 1791, 1801, 1811]","1138","1920","[960, 960, 960, 960, 960, 960, 960, 960, 960, 960, 960, 960, 960, 960, 960, 960, 960, 960, 960, 960, 960, 960, 960, 960, 960, 960, 960, 960, 960, 960, 960, 960, 959, 959, 959, 959, 959, 959, 959, 959, 959, 959, 959, 959, 959, 965, 968, 972, 977, 988, 995, 1006, 1015, 1034, 1041, 1049, 1059, 1075, 1082, 1088, 1094, 1103, 1107, 1108, 1111, 1117, 1120, 1123, 1125, 1131, 1133, 1137, 1140, 1148, 1154, 1159, 1165, 1182, 1190, 1200, 1210, 1228, 1236, 1245, 1254, 1269, 1278, 1287, 1294, 1312, 1320, 1329, 1335, 1347, 1356, 1363, 1368, 1379, 1385, 1393, 1402, 1425, 1437, 1452, 1465, 1483, 1493, 1501, 1511, 1531, 1541, 1556, 1565, 1589, 1597, 1606, 1612, 1624, 1630, 1638, 1644, 1655, 1662, 1668, 1674, 1686, 1691, 1696, 1700, 1708, 1711, 1713, 1717, 1719, 1719, 1720, 1721, 1721, 1721, 1721, 1721, 1721, 1721, 1722, 1723, 1725, 1727, 1730, 1733, 1743, 1747, 1750, 1754, 1759, 1760, 1760, 1760, 1760, 1760, 1760, 1760, 1760, 1760, 1760, 1760, 1760, 1760, 1760, 1760, 1760, 1760, 1760, 1760, 1760, 1760, 1760, 1760, 1760, 1760, 1760, 1760]","[1010, 1010, 1010, 1010, 1010, 1010, 1010, 1010, 1010, 1010, 1010, 1010, 1010, 1010, 1010, 1010, 1010, 1010, 1010, 1010, 1010, 1010, 1010, 1010, 1010, 1010, 1010, 1010, 1010, 1010, 1010, 1010, 1010, 1009, 1008, 1007, 1006, 1003, 1003, 1000, 997, 992, 989, 985, 980, 966, 958, 947, 937, 913, 902, 882, 866, 836, 824, 811, 799, 776, 767, 760, 751, 740, 735, 731, 728, 720, 717, 713, 711, 703, 700, 695, 692, 682, 676, 671, 663, 649, 642, 634, 626, 608, 602, 595, 587, 573, 565, 558, 552, 536, 530, 523, 518, 508, 502, 496, 493, 483, 478, 470, 463, 444, 434, 422, 410, 394, 386, 378, 368, 345, 335, 321, 310, 290, 282, 273, 267, 255, 249, 242, 237, 226, 219, 213, 207, 195, 190, 184, 181, 172, 170, 168, 164, 161, 161, 160, 159, 159, 159, 158, 158, 158, 158, 158, 156, 152, 148, 145, 139, 122, 112, 105, 101, 91, 89, 86, 85, 84, 84, 84, 84, 84, 84, 84, 84, 84, 84, 84, 84, 84, 84, 84, 84, 84, 84, 84, 84, 84, 84, 84, 84]"
"Promise","Wie oft werden Sie die Hälfte zurückgeben?","Promise","1","undefined","5","0","2","60","1080","641","5","1","2232","0","legacy","[11, 21, 31, 41, 51, 61, 71, 81, 91, 101, 111, 121, 131, 141, 151, 161, 171, 181, 191, 201, 211, 221, 231, 241, 251, 261, 271, 281, 291, 301, 311, 321, 331, 341, 351, 361, 371, 381, 391, 401, 411, 421, 431, 441, 451, 461, 471, 481, 491, 501, 511, 521, 531, 541, 551, 561, 571, 581, 591, 601, 611, 621, 631, 641, 651, 661, 671, 681, 691, 701, 711, 721, 731, 741, 751, 761, 771, 781, 791, 801, 811, 821, 831, 841, 851, 861, 871, 881, 891, 901, 911, 921, 931, 941, 951, 961, 971, 981, 991, 1001, 1011, 1021, 1031, 1041, 1051, 1061, 1071, 1081, 1091, 1101, 1111, 1121, 1131, 1141, 1151, 1161, 1171, 1181, 1191, 1201, 1211, 1221, 1231, 1241, 1251, 1261, 1271, 1281, 1291, 1301, 1311, 1321, 1331, 1341, 1351, 1361, 1371, 1381, 1391, 1401, 1411, 1421, 1431, 1441, 1451, 1461, 1471, 1481, 1491, 1501, 1511, 1521, 1531, 1541, 1551, 1561, 1571, 1581, 1591, 1601, 1611, 1621, 1631, 1641, 1651, 1661, 1671, 1681, 1691, 1701, 1711, 1721, 1731, 1741, 1751, 1761, 1771, 1781, 1791, 1801, 1811, 1821, 1831, 1841, 1851, 1861, 1871, 1881, 1891, 1901, 1911, 1921, 1931, 1941, 1951, 1961, 1971, 1981, 1991, 2001, 2011, 2021, 2031, 2041, 2051, 2061, 2071, 2081, 2091, 2101, 2111, 2121, 2131, 2141, 2151, 2161, 2171, 2181, 2191, 2201, 2211, 2221, 2231]","1138","1920","[960, 960, 960, 960, 960, 960, 960, 960, 960, 960, 960, 960, 960, 960, 960, 960, 960, 960, 960, 960, 960, 960, 960, 960, 960, 960, 960, 960, 960, 960, 960, 960, 960, 960, 960, 960, 960, 960, 960, 960, 960, 960, 960, 960, 960, 960, 960, 960, 960, 960, 960, 960, 961, 961, 961, 964, 965, 969, 974, 985, 992, 1000, 1010, 1039, 1059, 1083, 1110, 1170, 1197, 1221, 1245, 1276, 1285, 1293, 1300, 1312, 1316, 1321, 1327, 1333, 1339, 1343, 1348, 1356, 1359, 1364, 1368, 1377, 1383, 1388, 1393, 1404, 1410, 1415, 1420, 1433, 1440, 1449, 1457, 1476, 1489, 1499, 1512, 1541, 1560, 1581, 1598, 1622, 1633, 1644, 1652, 1665, 1670, 1675, 1681, 1690, 1694, 1698, 1700, 1706, 1707, 1709, 1710, 1712, 1712, 1712, 1713, 1715, 1715, 1715, 1715, 1716, 1717, 1717, 1718, 1720, 1721, 1722, 1723, 1725, 1725, 1726, 1726, 1727, 1728, 1728, 1729, 1729, 1730, 1730, 1730, 1731, 1732, 1733, 1733, 1733, 1733, 1733, 1733, 1733, 1733, 1733, 1733, 1733, 1733, 1733, 1733, 1733, 1733, 1733, 1733, 1733, 1733, 1733, 1733, 1733, 1733, 1733, 1733, 1733, 1733, 1733, 1733, 1733, 1733, 1733, 1733, 1733, 1733, 1733, 1733, 1733, 1733, 1733, 1733, 1733, 1733, 1733, 1733, 1733, 1733, 1733, 1733, 1733, 1733, 1733, 1733, 1733, 1733, 1733, 1733, 1733, 1733, 1733, 1733, 1733, 1733, 1733, 1733, 1733, 1733, 1733, 1733]","[1010, 1010, 1010, 1010, 1010, 1010, 1010, 1010, 1010, 1010, 1010, 1010, 1010, 1010, 1010, 1010, 1010, 1010, 1010, 1010, 1010, 1010, 1010, 1010, 1010, 1010, 1010, 1010, 1010, 1010, 1010, 1010, 1010, 1010, 1010, 1010, 1010, 1010, 1010, 1010, 1010, 1010, 1010, 1010, 1010, 1010, 1010, 1010, 1010, 1010, 1010, 1010, 1010, 1010, 1010, 1009, 1008, 1003, 997, 985, 977, 968, 956, 923, 900, 873, 846, 787, 760, 736, 712, 678, 662, 650, 643, 625, 620, 611, 604, 594, 588, 582, 575, 564, 558, 553, 548, 536, 527, 521, 512, 496, 487, 479, 471, 447, 437, 424, 414, 388, 375, 363, 350, 321, 300, 282, 269, 250, 242, 233, 226, 216, 211, 206, 199, 188, 182, 177, 174, 164, 161, 158, 156, 153, 152, 151, 149, 146, 145, 145, 145, 141, 138, 136, 133, 127, 123, 119, 117, 110, 107, 102, 99, 91, 88, 84, 82, 78, 75, 74, 71, 66, 63, 63, 61, 61, 61, 61, 61, 61, 61, 61, 61, 61, 61, 61, 61, 61, 61, 61, 61, 61, 61, 61, 61, 61, 61, 61, 61, 61, 61, 61, 61, 61, 61, 61, 61, 61, 61, 61, 61, 61, 61, 61, 61, 61, 61, 61, 61, 61, 61, 61, 61, 61, 61, 61, 61, 61, 61, 61, 61, 61, 61, 61, 61, 61, 61, 61, 61, 61, 61, 61, 61]"
"NoTrust","Teilnehmer A hat Ihnen keine 2 Punkte übermittelt.","Payback","1","undefined","6","0","2","60","1080","641","0","1","2232","0","legacy","[11, 21, 31, 41, 51, 61, 71, 81, 91, 101, 111, 121, 131, 141, 151, 161, 171, 181, 191, 201, 211, 221, 231, 241, 251, 261, 271, 281, 291, 301, 311, 321, 331, 341, 351, 361, 371, 381, 391, 401, 411, 421, 431, 441, 451, 461, 471, 481, 491, 501, 511, 521, 531, 541, 551, 561, 571, 581, 591, 601, 611, 621, 631, 641, 651, 661, 671, 681, 691, 701, 711, 721, 731, 741, 751, 761, 771, 781, 791, 801, 811, 821, 831, 841, 851, 861, 871, 881, 891, 901, 911, 921, 931, 941, 951, 961, 971, 981, 991, 1001, 1011, 1021, 1031, 1041, 1051, 1061, 1071, 1081, 1091, 1101, 1111, 1121, 1131, 1141, 1151, 1161, 1171, 1181, 1191, 1201, 1211, 1221, 1231, 1241, 1251, 1261, 1271, 1281, 1291, 1301, 1311, 1321, 1331, 1341, 1351, 1361, 1371, 1381, 1391, 1401, 1411, 1421, 1431, 1441, 1451, 1461, 1471, 1481, 1491, 1501, 1511, 1521, 1531, 1541, 1551, 1561, 1571, 1581, 1591, 1601, 1611, 1621, 1631, 1641, 1651, 1661, 1671, 1681, 1691, 1701, 1711, 1721, 1731, 1741, 1751, 1761, 1771, 1781, 1791, 1801, 1811, 1821, 1831, 1841, 1851, 1861, 1871, 1881, 1891, 1901, 1911, 1921, 1931, 1941, 1951, 1961, 1971, 1981, 1991, 2001, 2011, 2021, 2031, 2041, 2051, 2061, 2071, 2081, 2091, 2101, 2111, 2121, 2131, 2141, 2151, 2161, 2171, 2181, 2191, 2201, 2211, 2221, 2231]","1138","1920","[960, 960, 960, 960, 960, 960, 960, 960, 960, 960, 960, 960, 960, 960, 960, 960, 960, 960, 960, 960, 960, 960, 960, 960, 960, 960, 960, 960, 960, 960, 960, 960, 960, 960, 960, 960, 960, 960, 960, 960, 960, 960, 960, 960, 960, 960, 960, 960, 960, 960, 960, 960, 961, 961, 961, 964, 965, 969, 974, 985, 992, 1000, 1010, 1039, 1059, 1083, 1110, 1170, 1197, 1221, 1245, 1276, 1285, 1293, 1300, 1312, 1316, 1321, 1327, 1333, 1339, 1343, 1348, 1356, 1359, 1364, 1368, 1377, 1383, 1388, 1393, 1404, 1410, 1415, 1420, 1433, 1440, 1449, 1457, 1476, 1489, 1499, 1512, 1541, 1560, 1581, 1598, 1622, 1633, 1644, 1652, 1665, 1670, 1675, 1681, 1690, 1694, 1698, 1700, 1706, 1707, 1709, 1710, 1712, 1712, 1712, 1713, 1715, 1715, 1715, 1715, 1716, 1717, 1717, 1718, 1720, 1721, 1722, 1723, 1725, 1725, 1726, 1726, 1727, 1728, 1728, 1729, 1729, 1730, 1730, 1730, 1731, 1732, 1733, 1733, 1733, 1733, 1733, 1733, 1733, 1733, 1733, 1733, 1733, 1733, 1733, 1733, 1733, 1733, 1733, 1733, 1733, 1733, 1733, 1733, 1733, 1733, 1733, 1733, 1733, 1733, 1733, 1733, 1733, 1733, 1733, 1733, 1733, 1733, 1733, 1733, 1733, 1733, 1733, 1733, 1733, 1733, 1733, 1733, 1733, 1733, 1733, 1733, 1733, 1733, 1733, 1733, 1733, 1733, 1733, 1733, 1733, 1733, 1733, 1733, 1733, 1733, 1733, 1733, 1733, 1733, 1733, 1733]","[1010, 1010, 1010, 1010, 1010, 1010, 1010, 1010, 1010, 1010, 1010, 1010, 1010, 1010, 1010, 1010, 1010, 1010, 1010, 1010, 1010, 1010, 1010, 1010, 1010, 1010, 1010, 1010, 1010, 1010, 1010, 1010, 1010, 1010, 1010, 1010, 1010, 1010, 1010, 1010, 1010, 1010, 1010, 1010, 1010, 1010, 1010, 1010, 1010, 1010, 1010, 1010, 1010, 1010, 1010, 1009, 1008, 1003, 997, 985, 977, 968, 956, 923, 900, 873, 846, 787, 760, 736, 712, 678, 662, 650, 643, 625, 620, 611, 604, 594, 588, 582, 575, 564, 558, 553, 548, 536, 527, 521, 512, 496, 487, 479, 471, 447, 437, 424, 414, 388, 375, 363, 350, 321, 300, 282, 269, 250, 242, 233, 226, 216, 211, 206, 199, 188, 182, 177, 174, 164, 161, 158, 156, 153, 152, 151, 149, 146, 145, 145, 145, 141, 138, 136, 133, 127, 123, 119, 117, 110, 107, 102, 99, 91, 88, 84, 82, 78, 75, 74, 71, 66, 63, 63, 61, 61, 61, 61, 61, 61, 61, 61, 61, 61, 61, 61, 61, 61, 61, 61, 61, 61, 61, 61, 61, 61, 61, 61, 61, 61, 61, 61, 61, 61, 61, 61, 61, 61, 61, 61, 61, 61, 61, 61, 61, 61, 61, 61, 61, 61, 61, 61, 61, 61, 61, 61, 61, 61, 61, 61, 61, 61, 61, 61, 61, 61, 61, 61, 61, 61, 61, 61, 61]"
"Trust","Teilnehmer A hat Ihnen 2 Punkte übermittelt.","Payback","1","undefined","7","0","2","60","1080","291","5","1","1293","0","legacy","[11, 21, 31, 41, 51, 61, 71, 81, 91, 101, 111, 121, 131, 141, 151, 161, 171, 181, 191, 201, 211, 221, 231, 241, 251, 261, 271, 281, 291, 301, 311, 321, 331, 341, 351, 361, 371, 381, 391, 401, 411, 421, 431, 441, 451, 461, 471, 481, 491, 501, 511, 521, 531, 541, 551, 561, 571, 581, 591, 601, 611, 621, 631, 641, 651, 661, 671, 681, 691, 701, 711, 721, 731, 741, 751, 761, 771, 781, 791, 801, 811, 821, 831, 841, 851, 861, 871, 881, 891, 901, 911, 921, 931, 941, 951, 961, 971, 981, 991, 1001, 1011, 1021, 1031, 1041, 1051, 1061, 1071, 1081, 1091, 1101, 1111, 1121, 1131, 1141, 1151, 1161, 1171, 1181, 1191, 1201, 1211, 1221, 1231, 1241, 1251, 1261, 1271, 1281, 1291]","1138","1920","[960, 960, 960, 960, 960, 960, 960, 960, 960, 960, 960, 960, 960, 960, 960, 960, 960, 960, 960, 960, 960, 960, 960, 960, 960, 960, 976, 996, 1017, 1050, 1130, 1181, 1233, 1286, 1394, 1447, 1503, 1555, 1654, 1692, 1725, 1755, 1790, 1804, 1818, 1826, 1844, 1850, 1855, 1862, 1874, 1880, 1884, 1889, 1893, 1895, 1895, 1897, 1899, 1899, 1900, 1901, 1901, 1901, 1901, 1901, 1901, 1901, 1901, 1901, 1897, 1896, 1895, 1894, 1892, 1891, 1889, 1888, 1887, 1885, 1884, 1883, 1882, 1881, 1880, 1879, 1879, 1878, 1877, 1877, 1877, 1877, 1877, 1877, 1877, 1877, 1877, 1877, 1877, 1877, 1877, 1877, 1877, 1877, 1877, 1877, 1877, 1877, 1877, 1877, 1877, 1877, 1877, 1877, 1877, 1877, 1877, 1877, 1877, 1877, 1877, 1877, 1877, 1877, 1877, 1877, 1877, 1877, 1877]","[1010, 1010, 1010, 1010, 1010, 1010, 1010, 1010, 1010, 1010, 1010, 1010, 1010, 1010, 1010, 1010, 1010, 1010, 1010, 1010, 1010, 1010, 1010, 1010, 1005, 1001, 976, 953, 927, 892, 804, 757, 705, 660, 561, 523, 482, 448, 393, 368, 350, 332, 311, 302, 293, 287, 272, 266, 258, 251, 232, 222, 213, 203, 191, 184, 181, 176, 169, 166, 163, 160, 155, 152, 151, 147, 141, 139, 135, 131, 119, 117, 113, 108, 102, 97, 93, 89, 83, 78, 75, 72, 67, 64, 63, 60, 57, 57, 56, 56, 55, 54, 54, 54, 54, 54, 54, 54, 54, 54, 54, 54, 54, 54, 54, 54, 54, 54, 54, 54, 54, 54, 54, 54, 54, 54, 54, 54, 54, 54, 54, 54, 54, 54, 54, 54, 54, 54, 54]"
"Trust","Teilnehmer A hat Ihnen 2 Punkte übermittelt.","Payback","1","undefined","8","0","2","60","1080","431","5","1","1446","0","legacy","[11, 21, 31, 41, 51, 61, 71, 81, 91, 101, 111, 121, 131, 141, 151, 161, 171, 181, 191, 201, 211, 221, 231, 241, 251, 261, 271, 281, 291, 301, 311, 321, 331, 341, 351, 361, 371, 381, 391, 401, 411, 421, 431, 441, 451, 461, 471, 481, 491, 501, 511, 521, 531, 541, 551, 561, 571, 581, 591, 601, 611, 621, 631, 641, 651, 661, 671, 681, 691, 701, 711, 721, 731, 741, 751, 761, 771, 781, 791, 801, 811, 821, 831, 841, 851, 861, 871, 881, 891, 901, 911, 921, 931, 941, 951, 961, 971, 981, 991, 1001, 1011, 1021, 1031, 1041, 1051, 1061, 1071, 1081, 1091, 1101, 1111, 1121, 1131, 1141, 1151, 1161, 1171, 1181, 1191, 1201, 1211, 1221, 1231, 1241, 1251, 1261, 1271, 1281, 1291, 1301, 1311, 1321, 1331, 1341, 1351, 1361, 1371, 1381, 1391, 1401, 1411, 1421, 1431, 1441]","1138","1920","[960, 960, 960, 960, 960, 960, 960, 960, 960, 960, 960, 960, 960, 960, 960, 960, 960, 960, 960, 960, 960, 960, 960, 960, 960, 960, 960, 960, 960, 960, 960, 962, 963, 966, 974, 976, 981, 987, 1002, 1012, 1023, 1034, 1063, 1080, 1097, 1115, 1151, 1169, 1186, 1205, 1236, 1250, 1259, 1270, 1289, 1297, 1306, 1314, 1329, 1333, 1339, 1346, 1358, 1364, 1371, 1379, 1392, 1400, 1405, 1410, 1419, 1425, 1430, 1434, 1446, 1450, 1455, 1456, 1459, 1461, 1462, 1463, 1466, 1468, 1471, 1474, 1486, 1492, 1496, 1501, 1509, 1511, 1514, 1517, 1522, 1524, 1530, 1535, 1544, 1549, 1550, 1553, 1556, 1558, 1558, 1562, 1564, 1567, 1569, 1572, 1577, 1578, 1582, 1584, 1593, 1599, 1604, 1610, 1622, 1629, 1636, 1645, 1655, 1663, 1667, 1673, 1685, 1691, 1694, 1698, 1704, 1705, 1705, 1705, 1705, 1705, 1705, 1705, 1705, 1705, 1705, 1705, 1705, 1705]","[1010, 1010, 1010, 1010, 1010, 1010, 1010, 1010, 1010, 1010, 1010, 1010, 1010, 1010, 1010, 1010, 1010, 1010, 1010, 1010, 1010, 1010, 1010, 1010, 1010, 1010, 1009, 1009, 1008, 1007, 1005, 1004, 1002, 1001, 995, 993, 989, 984, 972, 964, 957, 949, 925, 912, 901, 885, 855, 838, 825, 807, 779, 768, 759, 749, 728, 719, 708, 699, 681, 675, 666, 657, 640, 633, 624, 616, 601, 592, 585, 577, 561, 552, 545, 537, 521, 515, 508, 505, 498, 494, 492, 488, 483, 479, 472, 465, 449, 441, 436, 429, 418, 415, 410, 405, 399, 394, 386, 379, 366, 359, 355, 351, 342, 339, 336, 331, 325, 319, 314, 309, 297, 293, 286, 278, 260, 247, 234, 222, 196, 184, 171, 157, 137, 126, 116, 107, 88, 79, 73, 68, 60, 58, 58, 58, 58, 58, 58, 58, 58, 58, 58, 58, 58, 58]"
"Promise","Wie oft werden Sie die Hälfte zurückgeben?","Promise","1","undefined","8","0","3","60","1080","291","5","1","1527","0","legacy","[11, 21, 31, 41, 51, 61, 71, 81, 91, 101, 111, 121, 131, 141, 151, 161, 171, 181, 191, 201, 211, 221, 231, 241, 251, 261, 271, 281, 291, 301, 311, 321, 331, 341, 351, 361, 371, 381, 391, 401, 411, 421, 431, 441, 451, 461, 471, 481, 491, 501, 511, 521, 531, 541, 551, 561, 571, 581, 591, 601, 611, 621, 631, 641, 651, 661, 671, 681, 691, 701, 711, 721, 731, 741, 751, 761, 771, 781, 791, 801, 811, 821, 831, 841, 851, 861, 871, 881, 891, 901, 911, 921, 931, 941, 951, 961, 971, 981, 991, 1001, 1011, 1021, 1031, 1041, 1051, 1061, 1071, 1081, 1091, 1101, 1111, 1121, 1131, 1141, 1151, 1161, 1171, 1181, 1191, 1201, 1211, 1221, 1231, 1241, 1251, 1261, 1271, 1281, 1291, 1301, 1311, 1321, 1331, 1341, 1351, 1361, 1371, 1381, 1391, 1401, 1411, 1421, 1431, 1441, 1451, 1461, 1471, 1481, 1491, 1501, 1511, 1521]","1138","1920","[960, 960, 960, 960, 960, 960, 960, 960, 960, 960, 960, 960, 961, 963, 965, 969, 971, 974, 975, 978, 980, 980, 981, 984, 985, 988, 990, 999, 1005, 1010, 1016, 1028, 1036, 1044, 1053, 1068, 1080, 1090, 1101, 1122, 1130, 1138, 1146, 1161, 1166, 1173, 1178, 1190, 1195, 1200, 1204, 1213, 1217, 1224, 1229, 1242, 1248, 1256, 1262, 1278, 1285, 1293, 1300, 1321, 1330, 1341, 1350, 1369, 1380, 1390, 1401, 1419, 1424, 1430, 1435, 1444, 1448, 1453, 1456, 1465, 1472, 1479, 1490, 1514, 1526, 1536, 1545, 1556, 1565, 1573, 1582, 1599, 1606, 1612, 1620, 1631, 1636, 1642, 1646, 1653, 1658, 1662, 1666, 1670, 1674, 1677, 1680, 1685, 1689, 1690, 1693, 1698, 1701, 1703, 1705, 1709, 1710, 1711, 1711, 1713, 1714, 1715, 1715, 1717, 1717, 1717, 1717, 1717, 1718, 1719, 1720, 1721, 1723, 1724, 1727, 1729, 1729, 1729, 1729, 1730, 1730, 1730, 1730, 1730, 1730, 1730, 1730, 1730, 1730, 1730, 1730, 1730]","[1010, 1010, 1010, 1010, 1010, 1010, 1010, 1010, 1010, 1010, 1010, 1007, 1005, 1003, 1001, 997, 993, 990, 986, 980, 976, 974, 972, 966, 963, 957, 954, 940, 934, 929, 921, 907, 898, 889, 878, 856, 840, 826, 811, 786, 776, 767, 758, 741, 734, 726, 720, 707, 701, 695, 690, 680, 675, 667, 661, 647, 638, 632, 626, 613, 607, 601, 596, 580, 572, 560, 551, 531, 518, 508, 499, 479, 470, 463, 457, 442, 436, 429, 423, 412, 406, 399, 390, 370, 360, 352, 344, 334, 325, 317, 307, 288, 280, 272, 263, 250, 245, 238, 235, 228, 222, 217, 212, 205, 200, 195, 192, 185, 179, 177, 173, 166, 163, 159, 156, 150, 150, 147, 146, 143, 142, 140, 139, 138, 138, 138, 138, 136, 135, 134, 132, 129, 127, 124, 119, 113, 113, 112, 111, 110, 110, 110, 110, 110, 110, 110, 110, 110, 110, 110, 110, 110]"
"Trust","Teilnehmer A hat Ihnen 2 Punkte übermittelt.","Payback","1","undefined","9","0","3","60","1080","351","5","1","1406","0","legacy","[11, 21, 31, 41, 51, 61, 71, 81, 91, 101, 111, 121, 131, 141, 151, 161, 171, 181, 191, 201, 211, 221, 231, 241, 251, 261, 271, 281, 291, 301, 311, 321, 331, 341, 351, 361, 371, 381, 391, 401, 411, 421, 431, 441, 451, 461, 471, 481, 491, 501, 511, 521, 531, 541, 551, 561, 571, 581, 591, 601, 611, 621, 631, 641, 651, 661, 671, 681, 691, 701, 711, 721, 731, 741, 751, 761, 771, 781, 791, 801, 811, 821, 831, 841, 851, 861, 871, 881, 891, 901, 911, 921, 931, 941, 951, 961, 971, 981, 991, 1001, 1011, 1021, 1031, 1041, 1051, 1061, 1071, 1081, 1091, 1101, 1111, 1121, 1131, 1141, 1151, 1161, 1171, 1181, 1191, 1201, 1211, 1221, 1231, 1241, 1251, 1261, 1271, 1281, 1291, 1301, 1311, 1321, 1331, 1341, 1351, 1361, 1371, 1381, 1391, 1401]","1138","1920","[960, 960, 960, 960, 960, 960, 960, 960, 960, 960, 960, 960, 960, 960, 960, 960, 960, 960, 960, 960, 960, 960, 960, 960, 960, 960, 960, 960, 959, 961, 974, 984, 996, 1004, 1030, 1042, 1059, 1074, 1111, 1129, 1146, 1165, 1188, 1200, 1206, 1213, 1223, 1225, 1228, 1231, 1235, 1238, 1240, 1244, 1252, 1257, 1261, 1264, 1274, 1279, 1283, 1290, 1299, 1302, 1306, 1310, 1315, 1318, 1320, 1323, 1331, 1335, 1339, 1343, 1350, 1355, 1363, 1369, 1387, 1396, 1403, 1412, 1430, 1436, 1443, 1451, 1467, 1475, 1481, 1489, 1505, 1510, 1515, 1519, 1528, 1533, 1537, 1540, 1543, 1544, 1545, 1547, 1550, 1552, 1554, 1558, 1569, 1574, 1581, 1588, 1601, 1608, 1616, 1621, 1637, 1642, 1649, 1655, 1670, 1678, 1685, 1692, 1703, 1707, 1711, 1713, 1716, 1717, 1718, 1718, 1719, 1719, 1720, 1720, 1720, 1720, 1720, 1720, 1720, 1720]","[1010, 1010, 1010, 1010, 1010, 1010, 1010, 1010, 1010, 1010, 1010, 1010, 1010, 1010, 1010, 1010, 1010, 1010, 1010, 1010, 1010, 1010, 1010, 1010, 1010, 1010, 1010, 1010, 1010, 1003, 984, 970, 958, 944, 916, 901, 880, 863, 821, 798, 780, 759, 734, 723, 714, 707, 695, 690, 687, 682, 674, 669, 664, 659, 648, 642, 635, 630, 616, 610, 602, 596, 581, 576, 571, 567, 558, 554, 551, 548, 538, 532, 527, 522, 512, 506, 498, 492, 478, 472, 467, 460, 447, 439, 430, 421, 403, 394, 385, 377, 359, 352, 347, 344, 334, 327, 322, 316, 312, 309, 307, 304, 297, 295, 291, 285, 270, 263, 254, 244, 226, 218, 208, 199, 183, 175, 166, 159, 142, 132, 123, 116, 105, 101, 95, 93, 88, 88, 86, 86, 85, 84, 84, 84, 84, 84, 84, 84, 84, 84]"
"Trust","Teilnehmer A hat Ihnen 2 Punkte übermittelt.","Payback","1","undefined","10","0","3","60","1080","331","5","1","1204","0","legacy","[11, 21, 31, 41, 51, 61, 71, 81, 91, 101, 111, 121, 131, 141, 151, 161, 171, 181, 191, 201, 211, 221, 231, 241, 251, 261, 271, 281, 291, 301, 311, 321, 331, 341, 351, 361, 371, 381, 391, 401, 411, 421, 431, 441, 451, 461, 471, 481, 491, 501, 511, 521, 531, 541, 551, 561, 571, 581, 591, 601, 611, 621, 631, 641, 651, 661, 671, 681, 691, 701, 711, 721, 731, 741, 751, 761, 771, 781, 791, 801, 811, 821, 831, 841, 851, 861, 871, 881, 891, 901, 911, 921, 931, 941, 951, 961, 971, 981, 991, 1001, 1011, 1021, 1031, 1041, 1051, 1061, 1071, 1081, 1091, 1101, 1111, 1121, 1131, 1141, 1151, 1161, 1171, 1181, 1191, 1201]","1138","1920","[960, 960, 960, 960, 960, 960, 960, 960, 960, 960, 960, 960, 960, 960, 960, 960, 960, 960, 960, 960, 960, 960, 960, 960, 960, 961, 966, 972, 978, 999, 1012, 1028, 1043, 1086, 1105, 1133, 1160, 1211, 1238, 1258, 1283, 1314, 1330, 1346, 1360, 1387, 1396, 1406, 1414, 1430, 1438, 1448, 1455, 1468, 1476, 1483, 1491, 1509, 1519, 1533, 1547, 1568, 1578, 1586, 1593, 1605, 1611, 1616, 1618, 1622, 1624, 1624, 1625, 1628, 1630, 1632, 1634, 1643, 1649, 1654, 1659, 1670, 1675, 1678, 1681, 1685, 1686, 1687, 1687, 1687, 1687, 1687, 1687, 1687, 1687, 1687, 1687, 1688, 1688, 1690, 1690, 1691, 1691, 1691, 1691, 1691, 1691, 1691, 1691, 1691, 1691, 1691, 1691, 1691, 1691, 1691, 1691, 1691, 1691, 1691]","[1010, 1010, 1010, 1010, 1010, 1010, 1010, 1010, 1010, 1010, 1010, 1010, 1010, 1010, 1010, 1010, 1010, 1010, 1010, 1010, 1010, 1010, 1010, 1010, 1010, 1009, 1004, 998, 990, 970, 957, 943, 929, 886, 868, 845, 818, 760, 730, 709, 680, 644, 624, 606, 591, 554, 540, 525, 514, 492, 479, 465, 456, 436, 427, 415, 405, 380, 365, 350, 330, 305, 293, 282, 273, 256, 250, 243, 241, 234, 233, 231, 229, 225, 221, 218, 214, 203, 194, 188, 181, 165, 159, 153, 150, 145, 143, 143, 143, 143, 143, 143, 143, 143, 143, 143, 143, 141, 141, 141, 140, 140, 140, 140, 140, 140, 140, 140, 140, 140, 140, 140, 140, 140, 140, 140, 140, 140, 140, 140]"
"Trust","Teilnehmer A hat Ihnen 2 Punkte übermittelt.","Payback","1","undefined","11","0","3","60","1080","381","5","1","2293","0","legacy","[11, 21, 31, 41, 51, 61, 71, 81, 91, 101, 111, 121, 131, 141, 151, 161, 171, 181, 191, 201, 211, 221, 231, 241, 251, 261, 271, 281, 291, 301, 311, 321, 331, 341, 351, 361, 371, 381, 391, 401, 411, 421, 431, 441, 451, 461, 471, 481, 491, 501, 511, 521, 531, 541, 551, 561, 571, 581, 591, 601, 611, 621, 631, 641, 651, 661, 671, 681, 691, 701, 711, 721, 731, 741, 751, 761, 771, 781, 791, 801, 811, 821, 831, 841, 851, 861, 871, 881, 891, 901, 911, 921, 931, 941, 951, 961, 971, 981, 991, 1001, 1011, 1021, 1031, 1041, 1051, 1061, 1071, 1081, 1091, 1101, 1111, 1121, 1131, 1141, 1151, 1161, 1171, 1181, 1191, 1201, 1211, 1221, 1231, 1241, 1251, 1261, 1271, 1281, 1291, 1301, 1311, 1321, 1331, 1341, 1351, 1361, 1371, 1381, 1391, 1401, 1411, 1421, 1431, 1441, 1451, 1461, 1471, 1481, 1491, 1501, 1511, 1521, 1531, 1541, 1551, 1561, 1571, 1581, 1591, 1601, 1611, 1621, 1631, 1641, 1651, 1661, 1671, 1681, 1691, 1701, 1711, 1721, 1731, 1741, 1751, 1761, 1771, 1781, 1791, 1801, 1811, 1821, 1831, 1841, 1851, 1861, 1871, 1881, 1891, 1901, 1911, 1921, 1931, 1941, 1951, 1961, 1971, 1981, 1991, 2001, 2011, 2021, 2031, 2041, 2051, 2061, 2071, 2081, 2091, 2101, 2111, 2121, 2131, 2141, 2151, 2161, 2171, 2181, 2191, 2201, 2211, 2221, 2231, 2241, 2251, 2261, 2271, 2281, 2291]","1138","1920","[960, 960, 960, 960, 960, 960, 960, 960, 960, 960, 960, 960, 960, 960, 960, 960, 960, 960, 960, 960, 960, 960, 960, 960, 960, 960, 961, 961, 961, 962, 964, 966, 970, 972, 980, 987, 992, 997, 1010, 1018, 1025, 1030, 1052, 1067, 1087, 1109, 1150, 1169, 1183, 1195, 1221, 1233, 1243, 1254, 1277, 1287, 1295, 1303, 1320, 1325, 1332, 1340, 1350, 1356, 1360, 1367, 1381, 1389, 1396, 1403, 1417, 1421, 1425, 1429, 1436, 1440, 1444, 1448, 1459, 1463, 1465, 1469, 1475, 1479, 1484, 1489, 1499, 1504, 1508, 1513, 1524, 1529, 1533, 1536, 1542, 1546, 1550, 1554, 1559, 1563, 1569, 1577, 1588, 1592, 1597, 1598, 1602, 1605, 1607, 1611, 1618, 1619, 1622, 1626, 1632, 1633, 1635, 1638, 1651, 1669, 1693, 1722, 1779, 1800, 1815, 1829, 1848, 1851, 1851, 1851, 1851, 1851, 1851, 1851, 1851, 1851, 1851, 1851, 1851, 1851, 1851, 1851, 1851, 1851, 1851, 1851, 1851, 1851, 1851, 1851, 1851, 1851, 1851, 1851, 1851, 1851, 1851, 1851, 1851, 1851, 1851, 1851, 1851, 1851, 1851, 1851, 1851, 1851, 1851, 1851, 1851, 1851, 1851, 1851, 1851, 1851, 1851, 1851, 1851, 1851, 1851, 1851, 1851, 1851, 1851, 1851, 1851, 1851, 1851, 1851, 1851, 1851, 1851, 1851, 1851, 1851, 1851, 1851, 1851, 1851, 1851, 1851, 1851, 1851, 1851, 1851, 1851, 1851, 1851, 1851, 1851, 1851, 1851, 1851, 1851, 1851, 1851, 1851, 1851, 1851, 1851, 1851, 1851, 1851, 1851, 1851, 1851, 1851, 1851]","[1010, 1010, 1010, 1010, 1010, 1010, 1010, 1010, 1010, 1010, 1010, 1010, 1010, 1010, 1010, 1010, 1010, 1010, 1010, 1007, 1004, 1003, 1001, 1000, 1000, 998, 996, 994, 994, 991, 986, 982, 976, 973, 960, 951, 945, 936, 919, 909, 898, 891, 862, 842, 819, 788, 736, 711, 684, 669, 638, 624, 614, 600, 580, 570, 560, 551, 532, 523, 515, 506, 491, 485, 477, 469, 448, 437, 428, 418, 402, 397, 392, 388, 377, 372, 366, 361, 349, 345, 341, 337, 330, 326, 320, 315, 305, 298, 294, 287, 276, 270, 265, 260, 253, 247, 240, 235, 228, 223, 216, 209, 199, 195, 191, 189, 182, 180, 176, 171, 164, 163, 162, 159, 154, 153, 151, 148, 137, 129, 120, 108, 97, 92, 91, 89, 86, 86, 86, 86, 86, 86, 86, 86, 86, 86, 86, 86, 86, 86, 86, 86, 86, 86, 86, 86, 86, 86, 86, 86, 86, 86, 86, 86, 86, 86, 86, 86, 86, 86, 86, 86, 86, 86, 86, 86, 86, 86, 86, 86, 86, 86, 86, 86, 86, 86, 86, 86, 86, 86, 86, 86, 86, 86, 86, 86, 86, 86, 86, 86, 86, 86, 86, 86, 86, 86, 86, 86, 86, 86, 86, 86, 86, 86, 86, 86, 86, 86, 86, 86, 86, 86, 86, 86, 86, 86, 86, 86, 86, 86, 86, 86, 86, 86, 86, 86, 86, 86, 86]"
"Promise","Wie oft werden Sie die Hälfte zurückgeben?","Promise","1","undefined","11","0","4","60","1080","331","5","1","1239","0","legacy","[11, 21, 31, 41, 51, 61, 71, 81, 91, 101, 111, 121, 131, 141, 151, 161, 171, 181, 191, 201, 211, 221, 231, 241, 251, 261, 271, 281, 291, 301, 311, 321, 331, 341, 351, 361, 371, 381, 391, 401, 411, 421, 431, 441, 451, 461, 471, 481, 491, 501, 511, 521, 531, 541, 551, 561, 571, 581, 591, 601, 611, 621, 631, 641, 651, 661, 671, 681, 691, 701, 711, 721, 731, 741, 751, 761, 771, 781, 791, 801, 811, 821, 831, 841, 851, 861, 871, 881, 891, 901, 911, 921, 931, 941, 951, 961, 971, 981, 991, 1001, 1011, 1021, 1031, 1041, 1051, 1061, 1071, 1081, 1091, 1101, 1111, 1121, 1131, 1141, 1151, 1161, 1171, 1181, 1191, 1201, 1211, 1221, 1231]","1138","1920","[960, 960, 960, 960, 960, 960, 960, 960, 960, 960, 960, 960, 960, 960, 960, 960, 960, 960, 960, 960, 960, 960, 960, 960, 962, 963, 966, 976, 985, 994, 1009, 1052, 1080, 1109, 1144, 1215, 1244, 1276, 1301, 1343, 1358, 1374, 1386, 1409, 1418, 1430, 1442, 1461, 1472, 1482, 1494, 1520, 1536, 1553, 1569, 1611, 1630, 1649, 1671, 1705, 1724, 1741, 1759, 1785, 1797, 1804, 1812, 1826, 1831, 1838, 1843, 1851, 1854, 1856, 1860, 1864, 1866, 1868, 1871, 1877, 1879, 1880, 1882, 1884, 1885, 1886, 1886, 1886, 1887, 1888, 1888, 1888, 1888, 1888, 1888, 1888, 1888, 1888, 1888, 1888, 1888, 1888, 1888, 1888, 1888, 1888, 1888, 1888, 1888, 1888, 1888, 1888, 1888, 1888, 1888, 1888, 1888, 1888, 1888, 1888, 1888, 1888, 1888]","[1010, 1010, 1010, 1010, 1010, 1010, 1010, 1010, 1010, 1010, 1010, 1010, 1010, 1010, 1010, 1010, 1010, 1010, 1010, 1010, 1010, 1010, 1010, 1010, 1010, 1010, 1010, 1004, 998, 993, 982, 951, 927, 904, 873, 814, 786, 758, 732, 685, 667, 649, 634, 608, 601, 590, 580, 564, 554, 546, 534, 506, 487, 469, 453, 413, 394, 373, 349, 311, 292, 274, 251, 220, 205, 197, 188, 167, 162, 156, 150, 140, 136, 134, 129, 124, 121, 117, 115, 108, 105, 102, 100, 97, 95, 94, 93, 92, 90, 90, 89, 89, 89, 88, 88, 88, 88, 88, 87, 86, 86, 85, 85, 83, 83, 82, 82, 81, 81, 81, 81, 81, 81, 81, 81, 81, 81, 81, 81, 81, 81, 81, 81]"
"Trust","Teilnehmer A hat Ihnen 2 Punkte übermittelt.","Payback","1","undefined","12","0","4","60","1080","321","5","1","1389","0","legacy","[11, 21, 31, 41, 51, 61, 71, 81, 91, 101, 111, 121, 131, 141, 151, 161, 171, 181, 191, 201, 211, 221, 231, 241, 251, 261, 271, 281, 291, 301, 311, 321, 331, 341, 351, 361, 371, 381, 391, 401, 411, 421, 431, 441, 451, 461, 471, 481, 491, 501, 511, 521, 531, 541, 551, 561, 571, 581, 591, 601, 611, 621, 631, 641, 651, 661, 671, 681, 691, 701, 711, 721, 731, 741, 751, 761, 771, 781, 791, 801, 811, 821, 831, 841, 851, 861, 871, 881, 891, 901, 911, 921, 931, 941, 951, 961, 971, 981, 991, 1001, 1011, 1021, 1031, 1041, 1051, 1061, 1071, 1081, 1091, 1101, 1111, 1121, 1131, 1141, 1151, 1161, 1171, 1181, 1191, 1201, 1211, 1221, 1231, 1241, 1251, 1261, 1271, 1281, 1291, 1301, 1311, 1321, 1331, 1341, 1351, 1361, 1371, 1381]","1138","1920","[960, 960, 960, 960, 960, 960, 960, 960, 960, 960, 960, 960, 960, 960, 960, 960, 960, 960, 960, 960, 960, 960, 960, 960, 960, 960, 968, 974, 982, 993, 1019, 1036, 1050, 1072, 1109, 1131, 1153, 1174, 1213, 1228, 1248, 1263, 1290, 1304, 1317, 1331, 1350, 1359, 1368, 1377, 1394, 1400, 1406, 1413, 1424, 1430, 1437, 1447, 1462, 1471, 1482, 1493, 1515, 1531, 1549, 1564, 1600, 1616, 1628, 1637, 1654, 1663, 1671, 1681, 1697, 1705, 1715, 1724, 1737, 1740, 1745, 1749, 1757, 1761, 1765, 1769, 1774, 1778, 1780, 1784, 1789, 1789, 1790, 1791, 1794, 1795, 1796, 1798, 1799, 1799, 1799, 1799, 1799, 1799, 1800, 1801, 1801, 1801, 1801, 1801, 1801, 1801, 1801, 1801, 1801, 1801, 1801, 1801, 1801, 1801, 1802, 1802, 1802, 1802, 1802, 1802, 1802, 1802, 1802, 1802, 1802, 1802, 1802, 1802, 1802, 1802, 1802, 1802]","[1010, 1010, 1010, 1010, 1010, 1010, 1010, 1010, 1010, 1010, 1010, 1010, 1010, 1010, 1010, 1010, 1010, 1010, 1010, 1010, 1010, 1010, 1010, 1010, 1010, 1010, 1000, 991, 982, 970, 940, 919, 900, 873, 827, 801, 777, 752, 707, 689, 668, 653, 620, 605, 590, 574, 552, 542, 531, 522, 507, 501, 495, 489, 477, 471, 463, 458, 442, 434, 427, 418, 400, 388, 373, 359, 330, 320, 309, 300, 287, 279, 272, 264, 250, 242, 234, 226, 211, 208, 201, 195, 183, 176, 169, 162, 150, 140, 134, 125, 112, 109, 105, 100, 92, 89, 86, 84, 79, 77, 77, 77, 76, 74, 73, 72, 72, 71, 71, 71, 71, 71, 71, 71, 71, 71, 71, 71, 69, 68, 68, 68, 67, 67, 66, 66, 66, 66, 66, 66, 66, 66, 66, 66, 66, 66, 66, 66]"
"Trust","Teilnehmer A hat Ihnen 2 Punkte übermittelt.","Payback","1","undefined","13","0","4","60","1080","541","5","1","1814","0","legacy","[11, 21, 31, 41, 51, 61, 71, 81, 91, 101, 111, 121, 131, 141, 151, 161, 171, 181, 191, 201, 211, 221, 231, 241, 251, 261, 271, 281, 291, 301, 311, 321, 331, 341, 351, 361, 371, 381, 391, 401, 411, 421, 431, 441, 451, 461, 471, 481, 491, 501, 511, 521, 531, 541, 551, 561, 571, 581, 591, 601, 611, 621, 631, 641, 651, 661, 671, 681, 691, 701, 711, 721, 731, 741, 751, 761, 771, 781, 791, 801, 811, 821, 831, 841, 851, 861, 871, 881, 891, 901, 911, 921, 931, 941, 951, 961, 971, 981, 991, 1001, 1011, 1021, 1031, 1041, 1051, 1061, 1071, 1081, 1091, 1101, 1111, 1121, 1131, 1141, 1151, 1161, 1171, 1181, 1191, 1201, 1211, 1221, 1231, 1241, 1251, 1261, 1271, 1281, 1291, 1301, 1311, 1321, 1331, 1341, 1351, 1361, 1371, 1381, 1391, 1401, 1411, 1421, 1431, 1441, 1451, 1461, 1471, 1481, 1491, 1501, 1511, 1521, 1531, 1541, 1551, 1561, 1571, 1581, 1591, 1601, 1611, 1621, 1631, 1641, 1651, 1661, 1671, 1681, 1691, 1701, 1711, 1721, 1731, 1741, 1751, 1761, 1771, 1781, 1791, 1801, 1811]","1138","1920","[960, 960, 960, 960, 960, 960, 960, 960, 960, 960, 960, 960, 960, 960, 960, 960, 960, 960, 960, 960, 960, 960, 960, 960, 960, 960, 960, 960, 960, 960, 960, 960, 963, 966, 972, 977, 983, 989, 1006, 1020, 1039, 1071, 1146, 1180, 1213, 1238, 1270, 1281, 1288, 1293, 1300, 1306, 1315, 1325, 1350, 1368, 1386, 1406, 1446, 1464, 1479, 1502, 1528, 1542, 1552, 1566, 1586, 1594, 1602, 1609, 1622, 1631, 1640, 1648, 1671, 1680, 1694, 1706, 1721, 1727, 1732, 1740, 1748, 1754, 1761, 1767, 1776, 1780, 1782, 1784, 1785, 1786, 1786, 1786, 1786, 1786, 1786, 1786, 1786, 1786, 1786, 1786, 1786, 1786, 1784, 1783, 1779, 1778, 1776, 1776, 1775, 1775, 1775, 1776, 1780, 1781, 1783, 1785, 1787, 1787, 1787, 1788, 1788, 1788, 1788, 1788, 1788, 1788, 1788, 1788, 1788, 1788, 1788, 1788, 1788, 1788, 1788, 1788, 1788, 1788, 1788, 1788, 1788, 1788, 1788, 1788, 1788, 1788, 1788, 1788, 1788, 1788, 1788, 1788, 1788, 1788, 1788, 1788, 1788, 1788, 1788, 1788, 1788, 1788, 1788, 1788, 1788, 1788, 1788, 1788, 1788, 1788, 1788, 1788, 1788, 1788, 1788, 1788, 1788, 1788, 1788]","[1010, 1010, 1010, 1010, 1010, 1010, 1010, 1010, 1010, 1010, 1010, 1010, 1010, 1010, 1010, 1010, 1010, 1010, 1010, 1010, 1010, 1010, 1010, 1010, 1010, 1010, 1010, 1010, 1010, 1010, 1010, 1010, 1009, 1008, 1004, 1003, 1000, 998, 990, 984, 980, 968, 955, 955, 955, 955, 955, 955, 955, 955, 952, 949, 941, 934, 916, 901, 887, 873, 840, 825, 811, 793, 769, 759, 750, 738, 718, 708, 700, 692, 676, 666, 654, 642, 611, 597, 582, 563, 527, 512, 501, 484, 457, 437, 414, 392, 360, 346, 334, 320, 294, 282, 270, 258, 237, 225, 214, 205, 187, 183, 176, 171, 164, 160, 155, 151, 140, 135, 127, 123, 112, 106, 95, 87, 71, 67, 61, 56, 47, 44, 41, 40, 33, 30, 28, 25, 23, 23, 23, 23, 23, 23, 23, 23, 23, 23, 23, 23, 23, 23, 23, 23, 23, 23, 23, 23, 23, 23, 23, 23, 23, 23, 23, 23, 23, 23, 23, 23, 23, 23, 23, 23, 23, 23, 23, 23, 23, 23, 23, 23, 23, 23, 23, 23, 23, 23, 23, 23, 23, 23, 23]"
"Trust","Teilnehmer A hat Ihnen 2 Punkte übermittelt.","Payback","1","undefined","14","0","4","60","1080","541","5","1","1380","0","legacy","[11, 21, 31, 41, 51, 61, 71, 81, 91, 101, 111, 121, 131, 141, 151, 161, 171, 181, 191, 201, 211, 221, 231, 241, 251, 261, 271, 281, 291, 301, 311, 321, 331, 341, 351, 361, 371, 381, 391, 401, 411, 421, 431, 441, 451, 461, 471, 481, 491, 501, 511, 521, 531, 541, 551, 561, 571, 581, 591, 601, 611, 621, 631, 641, 651, 661, 671, 681, 691, 701, 711, 721, 731, 741, 751, 761, 771, 781, 791, 801, 811, 821, 831, 841, 851, 861, 871, 881, 891, 901, 911, 921, 931, 941, 951, 961, 971, 981, 991, 1001, 1011, 1021, 1031, 1041, 1051, 1061, 1071, 1081, 1091, 1101, 1111, 1121, 1131, 1141, 1151, 1161, 1171, 1181, 1191, 1201, 1211, 1221, 1231, 1241, 1251, 1261, 1271, 1281, 1291, 1301, 1311, 1321, 1331, 1341, 1351, 1361, 1371]","1138","1920","[960, 960, 960, 960, 960, 960, 960, 960, 960, 960, 960, 960, 960, 960, 960, 960, 960, 960, 960, 960, 960, 960, 960, 960, 960, 960, 960, 960, 960, 960, 960, 960, 960, 960, 960, 960, 960, 960, 960, 960, 965, 987, 997, 1008, 1017, 1033, 1041, 1052, 1064, 1096, 1109, 1125, 1144, 1186, 1210, 1231, 1252, 1288, 1304, 1325, 1344, 1381, 1403, 1426, 1444, 1476, 1487, 1497, 1506, 1520, 1529, 1536, 1542, 1554, 1560, 1564, 1572, 1586, 1599, 1608, 1614, 1634, 1637, 1644, 1649, 1664, 1672, 1680, 1688, 1698, 1703, 1707, 1708, 1709, 1709, 1709, 1709, 1709, 1709, 1709, 1709, 1713, 1715, 1716, 1716, 1716, 1716, 1716, 1716, 1714, 1713, 1713, 1713, 1713, 1713, 1713, 1713, 1713, 1713, 1713, 1713, 1713, 1713, 1713, 1713, 1713, 1713, 1713, 1713, 1713, 1713, 1713, 1713, 1713, 1713, 1713, 1713]","[1010, 1010, 1010, 1010, 1010, 1010, 1010, 1010, 1010, 1010, 1010, 1010, 1010, 1010, 1010, 1010, 1010, 1010, 1010, 1010, 1010, 1010, 1010, 1010, 1010, 1010, 1010, 1010, 1010, 1010, 1010, 1010, 1010, 1010, 1010, 1010, 1010, 1010, 1010, 1010, 1010, 1003, 1000, 996, 994, 990, 988, 983, 979, 965, 959, 953, 944, 925, 910, 901, 891, 869, 858, 843, 829, 804, 788, 772, 755, 730, 720, 712, 703, 685, 676, 667, 657, 637, 626, 614, 599, 566, 544, 523, 506, 461, 445, 428, 408, 355, 328, 302, 272, 234, 218, 205, 194, 168, 160, 151, 142, 126, 115, 102, 91, 69, 58, 48, 38, 23, 18, 13, 9, 2, 1, 0, 0, 0, 0, 0, 0, 0, 0, 0, 0, 0, 0, 0, 0, 0, 0, 0, 0, 0, 0, 0, 0, 0, 0, 0, 0]"
"Promise","Wie oft werden Sie die Hälfte zurückgeben?","Promise","1","undefined","14","0","5","60","1080","361","5","1","1623","0","legacy","[11, 21, 31, 41, 51, 61, 71, 81, 91, 101, 111, 121, 131, 141, 151, 161, 171, 181, 191, 201, 211, 221, 231, 241, 251, 261, 271, 281, 291, 301, 311, 321, 331, 341, 351, 361, 371, 381, 391, 401, 411, 421, 431, 441, 451, 461, 471, 481, 491, 501, 511, 521, 531, 541, 551, 561, 571, 581, 591, 601, 611, 621, 631, 641, 651, 661, 671, 681, 691, 701, 711, 721, 731, 741, 751, 761, 771, 781, 791, 801, 811, 821, 831, 841, 851, 861, 871, 881, 891, 901, 911, 921, 931, 941, 951, 961, 971, 981, 991, 1001, 1011, 1021, 1031, 1041, 1051, 1061, 1071, 1081, 1091, 1101, 1111, 1121, 1131, 1141, 1151, 1161, 1171, 1181, 1191, 1201, 1211, 1221, 1231, 1241, 1251, 1261, 1271, 1281, 1291, 1301, 1311, 1321, 1331, 1341, 1351, 1361, 1371, 1381, 1391, 1401, 1411, 1421, 1431, 1441, 1451, 1461, 1471, 1481, 1491, 1501, 1511, 1521, 1531, 1541, 1551, 1561, 1571, 1581, 1591, 1601, 1611, 1621]","1138","1920","[960, 960, 960, 960, 960, 960, 960, 960, 960, 960, 960, 960, 960, 960, 960, 960, 960, 960, 960, 960, 960, 960, 960, 960, 960, 961, 965, 978, 983, 989, 998, 1012, 1021, 1031, 1039, 1067, 1083, 1098, 1116, 1132, 1135, 1139, 1146, 1152, 1159, 1167, 1175, 1194, 1207, 1222, 1239, 1274, 1293, 1311, 1329, 1364, 1385, 1402, 1418, 1441, 1451, 1460, 1469, 1483, 1487, 1489, 1492, 1495, 1497, 1500, 1504, 1513, 1516, 1521, 1527, 1538, 1545, 1552, 1559, 1576, 1585, 1596, 1607, 1635, 1650, 1662, 1676, 1697, 1712, 1723, 1734, 1756, 1764, 1773, 1781, 1794, 1799, 1804, 1806, 1809, 1810, 1811, 1813, 1814, 1814, 1814, 1814, 1813, 1812, 1809, 1806, 1799, 1795, 1791, 1786, 1778, 1774, 1773, 1770, 1769, 1769, 1769, 1769, 1769, 1769, 1769, 1769, 1769, 1769, 1769, 1769, 1769, 1769, 1769, 1769, 1768, 1767, 1766, 1764, 1761, 1760, 1759, 1758, 1757, 1757, 1756, 1756, 1756, 1756, 1756, 1756, 1756, 1756, 1756, 1756, 1756, 1756, 1756, 1756, 1756, 1756, 1756]","[1010, 1010, 1010, 1010, 1010, 1010, 1010, 1010, 1010, 1010, 1010, 1010, 1010, 1010, 1010, 1010, 1010, 1010, 1010, 1010, 1010, 1010, 1010, 1010, 1010, 1010, 1010, 1004, 1001, 997, 991, 977, 968, 956, 942, 886, 849, 812, 769, 698, 669, 645, 620, 589, 576, 558, 544, 516, 499, 481, 460, 424, 405, 390, 375, 346, 328, 314, 300, 281, 275, 267, 259, 245, 243, 243, 242, 241, 239, 238, 237, 233, 230, 230, 227, 222, 220, 215, 212, 209, 207, 205, 200, 188, 183, 180, 175, 169, 162, 158, 152, 143, 140, 135, 129, 120, 116, 111, 107, 102, 99, 95, 92, 85, 80, 76, 72, 65, 60, 53, 47, 36, 30, 25, 20, 10, 6, 5, 2, 1, 1, 1, 1, 1, 1, 1, 1, 1, 1, 1, 1, 1, 1, 1, 1, 1, 1, 1, 1, 3, 4, 4, 5, 7, 7, 7, 7, 7, 7, 7, 7, 7, 7, 7, 7, 7, 7, 7, 7, 7, 7, 7]"
"NoTrust","Teilnehmer A hat Ihnen keine 2 Punkte übermittelt.","Payback","1","undefined","15","0","5","60","1080","361","0","1","1623","0","legacy","[11, 21, 31, 41, 51, 61, 71, 81, 91, 101, 111, 121, 131, 141, 151, 161, 171, 181, 191, 201, 211, 221, 231, 241, 251, 261, 271, 281, 291, 301, 311, 321, 331, 341, 351, 361, 371, 381, 391, 401, 411, 421, 431, 441, 451, 461, 471, 481, 491, 501, 511, 521, 531, 541, 551, 561, 571, 581, 591, 601, 611, 621, 631, 641, 651, 661, 671, 681, 691, 701, 711, 721, 731, 741, 751, 761, 771, 781, 791, 801, 811, 821, 831, 841, 851, 861, 871, 881, 891, 901, 911, 921, 931, 941, 951, 961, 971, 981, 991, 1001, 1011, 1021, 1031, 1041, 1051, 1061, 1071, 1081, 1091, 1101, 1111, 1121, 1131, 1141, 1151, 1161, 1171, 1181, 1191, 1201, 1211, 1221, 1231, 1241, 1251, 1261, 1271, 1281, 1291, 1301, 1311, 1321, 1331, 1341, 1351, 1361, 1371, 1381, 1391, 1401, 1411, 1421, 1431, 1441, 1451, 1461, 1471, 1481, 1491, 1501, 1511, 1521, 1531, 1541, 1551, 1561, 1571, 1581, 1591, 1601, 1611, 1621]","1138","1920","[960, 960, 960, 960, 960, 960, 960, 960, 960, 960, 960, 960, 960, 960, 960, 960, 960, 960, 960, 960, 960, 960, 960, 960, 960, 961, 965, 978, 983, 989, 998, 1012, 1021, 1031, 1039, 1067, 1083, 1098, 1116, 1132, 1135, 1139, 1146, 1152, 1159, 1167, 1175, 1194, 1207, 1222, 1239, 1274, 1293, 1311, 1329, 1364, 1385, 1402, 1418, 1441, 1451, 1460, 1469, 1483, 1487, 1489, 1492, 1495, 1497, 1500, 1504, 1513, 1516, 1521, 1527, 1538, 1545, 1552, 1559, 1576, 1585, 1596, 1607, 1635, 1650, 1662, 1676, 1697, 1712, 1723, 1734, 1756, 1764, 1773, 1781, 1794, 1799, 1804, 1806, 1809, 1810, 1811, 1813, 1814, 1814, 1814, 1814, 1813, 1812, 1809, 1806, 1799, 1795, 1791, 1786, 1778, 1774, 1773, 1770, 1769, 1769, 1769, 1769, 1769, 1769, 1769, 1769, 1769, 1769, 1769, 1769, 1769, 1769, 1769, 1769, 1768, 1767, 1766, 1764, 1761, 1760, 1759, 1758, 1757, 1757, 1756, 1756, 1756, 1756, 1756, 1756, 1756, 1756, 1756, 1756, 1756, 1756, 1756, 1756, 1756, 1756, 1756]","[1010, 1010, 1010, 1010, 1010, 1010, 1010, 1010, 1010, 1010, 1010, 1010, 1010, 1010, 1010, 1010, 1010, 1010, 1010, 1010, 1010, 1010, 1010, 1010, 1010, 1010, 1010, 1004, 1001, 997, 991, 977, 968, 956, 942, 886, 849, 812, 769, 698, 669, 645, 620, 589, 576, 558, 544, 516, 499, 481, 460, 424, 405, 390, 375, 346, 328, 314, 300, 281, 275, 267, 259, 245, 243, 243, 242, 241, 239, 238, 237, 233, 230, 230, 227, 222, 220, 215, 212, 209, 207, 205, 200, 188, 183, 180, 175, 169, 162, 158, 152, 143, 140, 135, 129, 120, 116, 111, 107, 102, 99, 95, 92, 85, 80, 76, 72, 65, 60, 53, 47, 36, 30, 25, 20, 10, 6, 5, 2, 1, 1, 1, 1, 1, 1, 1, 1, 1, 1, 1, 1, 1, 1, 1, 1, 1, 1, 1, 1, 3, 4, 4, 5, 7, 7, 7, 7, 7, 7, 7, 7, 7, 7, 7, 7, 7, 7, 7, 7, 7, 7, 7]"
"Trust","Teilnehmer A hat Ihnen 2 Punkte übermittelt.","Payback","1","undefined","16","0","5","60","1080","321","5","1","1596","0","legacy","[11, 21, 31, 41, 51, 61, 71, 81, 91, 101, 111, 121, 131, 141, 151, 161, 171, 181, 191, 201, 211, 221, 231, 241, 251, 261, 271, 281, 291, 301, 311, 321, 331, 341, 351, 361, 371, 381, 391, 401, 411, 421, 431, 441, 451, 461, 471, 481, 491, 501, 511, 521, 531, 541, 551, 561, 571, 581, 591, 601, 611, 621, 631, 641, 651, 661, 671, 681, 691, 701, 711, 721, 731, 741, 751, 761, 771, 781, 791, 801, 811, 821, 831, 841, 851, 861, 871, 881, 891, 901, 911, 921, 931, 941, 951, 961, 971, 981, 991, 1001, 1011, 1021, 1031, 1041, 1051, 1061, 1071, 1081, 1091, 1101, 1111, 1121, 1131, 1141, 1151, 1161, 1171, 1181, 1191, 1201, 1211, 1221, 1231, 1241, 1251, 1261, 1271, 1281, 1291, 1301, 1311, 1321, 1331, 1341, 1351, 1361, 1371, 1381, 1391, 1401, 1411, 1421, 1431, 1441, 1451, 1461, 1471, 1481, 1491, 1501, 1511, 1521, 1531, 1541, 1551, 1561, 1571, 1581, 1591]","1138","1920","[960, 960, 960, 960, 960, 960, 960, 960, 960, 960, 960, 960, 960, 960, 960, 960, 960, 960, 960, 960, 960, 960, 960, 960, 960, 962, 965, 969, 974, 987, 997, 1008, 1022, 1067, 1091, 1129, 1161, 1231, 1263, 1296, 1335, 1390, 1419, 1447, 1472, 1515, 1539, 1556, 1574, 1600, 1609, 1621, 1632, 1649, 1654, 1658, 1663, 1680, 1688, 1695, 1700, 1709, 1714, 1718, 1722, 1729, 1732, 1734, 1737, 1746, 1749, 1753, 1756, 1764, 1768, 1770, 1772, 1774, 1774, 1774, 1774, 1774, 1774, 1774, 1774, 1775, 1776, 1777, 1778, 1781, 1782, 1782, 1782, 1782, 1782, 1782, 1783, 1783, 1783, 1783, 1783, 1783, 1783, 1783, 1783, 1783, 1783, 1783, 1783, 1783, 1783, 1783, 1783, 1783, 1783, 1783, 1783, 1783, 1783, 1783, 1783, 1783, 1783, 1783, 1783, 1783, 1783, 1783, 1783, 1783, 1783, 1783, 1783, 1783, 1783, 1783, 1783, 1783, 1783, 1783, 1783, 1783, 1783, 1783, 1783, 1783, 1783, 1783, 1783, 1783, 1783, 1783, 1783, 1783, 1783, 1783, 1783, 1783, 1783]","[1010, 1010, 1010, 1010, 1010, 1010, 1010, 1010, 1010, 1010, 1010, 1010, 1010, 1009, 1009, 1009, 1008, 1007, 1007, 1005, 1004, 1002, 1001, 1000, 999, 993, 988, 983, 977, 958, 948, 934, 918, 871, 844, 809, 776, 708, 678, 648, 614, 568, 544, 525, 507, 466, 442, 421, 398, 370, 358, 346, 333, 311, 305, 302, 298, 277, 266, 258, 250, 240, 233, 230, 225, 216, 213, 208, 204, 193, 190, 186, 181, 171, 166, 165, 162, 160, 160, 160, 160, 160, 160, 160, 160, 156, 154, 151, 147, 138, 134, 131, 129, 124, 122, 120, 119, 115, 113, 111, 109, 106, 105, 104, 104, 103, 103, 103, 103, 103, 103, 103, 103, 103, 103, 103, 103, 103, 103, 103, 103, 103, 103, 103, 103, 103, 103, 103, 103, 103, 103, 103, 103, 103, 103, 103, 103, 103, 103, 103, 103, 103, 103, 103, 103, 103, 103, 103, 103, 103, 103, 103, 103, 103, 103, 103, 103, 103, 103]"
"Trust","Teilnehmer A hat Ihnen 2 Punkte übermittelt.","Payback","1","undefined","17","0","5","60","1080","321","5","1","1461","0","legacy","[11, 21, 31, 41, 51, 61, 71, 81, 91, 101, 111, 121, 131, 141, 151, 161, 171, 181, 191, 201, 211, 221, 231, 241, 251, 261, 271, 281, 291, 301, 311, 321, 331, 341, 351, 361, 371, 381, 391, 401, 411, 421, 431, 441, 451, 461, 471, 481, 491, 501, 511, 521, 531, 541, 551, 561, 571, 581, 591, 601, 611, 621, 631, 641, 651, 661, 671, 681, 691, 701, 711, 721, 731, 741, 751, 761, 771, 781, 791, 801, 811, 821, 831, 841, 851, 861, 871, 881, 891, 901, 911, 921, 931, 941, 951, 961, 971, 981, 991, 1001, 1011, 1021, 1031, 1041, 1051, 1061, 1071, 1081, 1091, 1101, 1111, 1121, 1131, 1141, 1151, 1161, 1171, 1181, 1191, 1201, 1211, 1221, 1231, 1241, 1251, 1261, 1271, 1281, 1291, 1301, 1311, 1321, 1331, 1341, 1351, 1361, 1371, 1381, 1391, 1401, 1411, 1421, 1431, 1441, 1451]","1138","1920","[960, 960, 960, 960, 960, 960, 960, 960, 960, 960, 960, 960, 960, 960, 960, 960, 960, 960, 960, 960, 960, 960, 960, 960, 960, 960, 964, 968, 973, 981, 997, 1009, 1022, 1039, 1061, 1072, 1086, 1096, 1121, 1140, 1152, 1164, 1189, 1195, 1202, 1210, 1222, 1229, 1236, 1244, 1256, 1262, 1269, 1274, 1288, 1294, 1300, 1308, 1321, 1328, 1335, 1344, 1364, 1374, 1382, 1393, 1409, 1417, 1427, 1450, 1458, 1469, 1478, 1490, 1506, 1510, 1519, 1525, 1539, 1545, 1554, 1564, 1569, 1573, 1576, 1578, 1584, 1585, 1587, 1588, 1592, 1593, 1594, 1594, 1595, 1596, 1598, 1601, 1604, 1608, 1613, 1624, 1630, 1639, 1644, 1661, 1670, 1677, 1683, 1695, 1699, 1703, 1706, 1709, 1711, 1713, 1714, 1715, 1716, 1716, 1717, 1717, 1717, 1717, 1717, 1717, 1717, 1717, 1717, 1717, 1717, 1717, 1717, 1717, 1717, 1717, 1717, 1717, 1717, 1717, 1717, 1717, 1717, 1717, 1717]","[1010, 1010, 1010, 1010, 1010, 1010, 1010, 1010, 1010, 1010, 1010, 1010, 1010, 1010, 1010, 1010, 1010, 1010, 1010, 1010, 1010, 1010, 1010, 1010, 1010, 1008, 997, 990, 982, 971, 947, 932, 912, 890, 849, 828, 803, 762, 723, 698, 683, 668, 638, 629, 620, 610, 591, 582, 572, 562, 546, 538, 529, 522, 506, 499, 492, 483, 468, 458, 449, 437, 411, 399, 389, 375, 352, 342, 328, 295, 283, 266, 250, 231, 205, 198, 186, 178, 164, 158, 150, 141, 137, 135, 133, 130, 127, 126, 126, 125, 123, 123, 122, 122, 122, 122, 121, 120, 120, 119, 118, 115, 114, 111, 110, 105, 103, 99, 98, 95, 94, 94, 93, 91, 91, 90, 90, 89, 89, 89, 89, 89, 89, 89, 89, 89, 89, 89, 89, 89, 89, 89, 89, 89, 89, 89, 89, 89, 89, 89, 89, 89, 89, 89, 89]"
"Promise","Wie oft werden Sie die Hälfte zurückgeben?","Promise","1","undefined","17","0","6","60","1080","401","5","1","1799","0","legacy","[11, 21, 31, 41, 51, 61, 71, 81, 91, 101, 111, 121, 131, 141, 151, 161, 171, 181, 191, 201, 211, 221, 231, 241, 251, 261, 271, 281, 291, 301, 311, 321, 331, 341, 351, 361, 371, 381, 391, 401, 411, 421, 431, 441, 451, 461, 471, 481, 491, 501, 511, 521, 531, 541, 551, 561, 571, 581, 591, 601, 611, 621, 631, 641, 651, 661, 671, 681, 691, 701, 711, 721, 731, 741, 751, 761, 771, 781, 791, 801, 811, 821, 831, 841, 851, 861, 871, 881, 891, 901, 911, 921, 931, 941, 951, 961, 971, 981, 991, 1001, 1011, 1021, 1031, 1041, 1051, 1061, 1071, 1081, 1091, 1101, 1111, 1121, 1131, 1141, 1151, 1161, 1171, 1181, 1191, 1201, 1211, 1221, 1231, 1241, 1251, 1261, 1271, 1281, 1291, 1301, 1311, 1321, 1331, 1341, 1351, 1361, 1371, 1381, 1391, 1401, 1411, 1421, 1431, 1441, 1451, 1461, 1471, 1481, 1491, 1501, 1511, 1521, 1531, 1541, 1551, 1561, 1571, 1581, 1591, 1601, 1611, 1621, 1631, 1641, 1651, 1661, 1671, 1681, 1691, 1701, 1711, 1721, 1731, 1741, 1751, 1761, 1771, 1781, 1791]","1138","1920","[960, 960, 960, 960, 960, 960, 960, 960, 960, 960, 960, 960, 960, 960, 960, 960, 960, 960, 960, 960, 960, 960, 960, 960, 960, 960, 960, 960, 960, 960, 960, 962, 964, 967, 970, 981, 988, 996, 1002, 1016, 1027, 1034, 1040, 1062, 1077, 1098, 1117, 1154, 1176, 1192, 1212, 1240, 1254, 1267, 1276, 1301, 1311, 1321, 1332, 1348, 1359, 1365, 1372, 1385, 1391, 1396, 1400, 1407, 1411, 1414, 1417, 1421, 1423, 1425, 1427, 1432, 1438, 1443, 1445, 1449, 1450, 1454, 1456, 1462, 1463, 1466, 1467, 1469, 1471, 1472, 1473, 1476, 1476, 1478, 1478, 1481, 1483, 1484, 1486, 1491, 1493, 1494, 1497, 1511, 1522, 1532, 1542, 1563, 1575, 1586, 1599, 1619, 1628, 1635, 1641, 1654, 1659, 1664, 1667, 1674, 1678, 1680, 1684, 1689, 1690, 1691, 1692, 1694, 1695, 1696, 1697, 1699, 1699, 1700, 1701, 1701, 1701, 1701, 1701, 1701, 1701, 1701, 1701, 1701, 1701, 1701, 1701, 1703, 1703, 1704, 1704, 1705, 1706, 1706, 1707, 1708, 1708, 1709, 1710, 1711, 1711, 1711, 1711, 1712, 1712, 1712, 1712, 1712, 1712, 1712, 1712, 1712, 1712, 1712, 1712, 1712, 1712, 1712, 1712]","[1010, 1010, 1010, 1010, 1010, 1010, 1010, 1010, 1010, 1010, 1010, 1010, 1010, 1010, 1010, 1010, 1010, 1010, 1010, 1010, 1010, 1010, 1010, 1010, 1010, 1010, 1010, 1010, 1010, 1010, 1010, 1007, 1004, 999, 993, 979, 970, 960, 948, 929, 916, 904, 893, 856, 834, 806, 778, 729, 703, 687, 672, 647, 635, 624, 616, 594, 583, 573, 563, 546, 537, 529, 522, 508, 500, 495, 491, 484, 479, 474, 469, 466, 462, 461, 457, 451, 446, 441, 439, 435, 432, 428, 427, 419, 416, 414, 412, 410, 410, 408, 408, 407, 407, 406, 405, 404, 403, 403, 401, 398, 394, 392, 387, 369, 355, 346, 339, 324, 318, 312, 305, 292, 288, 284, 278, 267, 263, 258, 253, 242, 236, 231, 225, 214, 207, 203, 198, 192, 188, 188, 184, 179, 177, 174, 172, 170, 170, 170, 169, 169, 169, 168, 167, 166, 164, 164, 162, 157, 156, 153, 148, 141, 136, 132, 128, 120, 116, 114, 111, 107, 105, 104, 103, 102, 102, 102, 102, 102, 102, 102, 102, 102, 102, 102, 102, 102, 102, 102, 102]"
"Trust","Teilnehmer A hat Ihnen 2 Punkte übermittelt.","Payback","1","undefined","18","0","6","60","1080","301","5","1","1909","0","legacy","[11, 21, 31, 41, 51, 61, 71, 81, 91, 101, 111, 121, 131, 141, 151, 161, 171, 181, 191, 201, 211, 221, 231, 241, 251, 261, 271, 281, 291, 301, 311, 321, 331, 341, 351, 361, 371, 381, 391, 401, 411, 421, 431, 441, 451, 461, 471, 481, 491, 501, 511, 521, 531, 541, 551, 561, 571, 581, 591, 601, 611, 621, 631, 641, 651, 661, 671, 681, 691, 701, 711, 721, 731, 741, 751, 761, 771, 781, 791, 801, 811, 821, 831, 841, 851, 861, 871, 881, 891, 901, 911, 921, 931, 941, 951, 961, 971, 981, 991, 1001, 1011, 1021, 1031, 1041, 1051, 1061, 1071, 1081, 1091, 1101, 1111, 1121, 1131, 1141, 1151, 1161, 1171, 1181, 1191, 1201, 1211, 1221, 1231, 1241, 1251, 1261, 1271, 1281, 1291, 1301, 1311, 1321, 1331, 1341, 1351, 1361, 1371, 1381, 1391, 1401, 1411, 1421, 1431, 1441, 1451, 1461, 1471, 1481, 1491, 1501, 1511, 1521, 1531, 1541, 1551, 1561, 1571, 1581, 1591, 1601, 1611, 1621, 1631, 1641, 1651, 1661, 1671, 1681, 1691, 1701, 1711, 1721, 1731, 1741, 1751, 1761, 1771, 1781, 1791, 1801, 1811, 1821, 1831, 1841, 1851, 1861, 1871, 1881, 1891, 1901]","1138","1920","[960, 960, 960, 960, 960, 960, 960, 960, 960, 960, 960, 960, 960, 960, 960, 960, 960, 960, 960, 960, 960, 962, 971, 977, 985, 988, 1009, 1019, 1028, 1042, 1073, 1084, 1104, 1117, 1149, 1161, 1174, 1188, 1217, 1242, 1269, 1292, 1342, 1356, 1366, 1375, 1388, 1393, 1399, 1403, 1411, 1414, 1419, 1421, 1426, 1428, 1430, 1432, 1439, 1443, 1446, 1448, 1453, 1457, 1459, 1463, 1472, 1477, 1482, 1487, 1498, 1505, 1510, 1517, 1531, 1537, 1548, 1562, 1578, 1586, 1593, 1598, 1612, 1621, 1628, 1633, 1644, 1650, 1654, 1659, 1667, 1671, 1676, 1678, 1688, 1691, 1694, 1697, 1701, 1703, 1704, 1706, 1709, 1710, 1710, 1711, 1713, 1713, 1713, 1713, 1714, 1714, 1714, 1715, 1716, 1716, 1716, 1716, 1716, 1716, 1716, 1716, 1716, 1716, 1716, 1716, 1716, 1716, 1716, 1716, 1716, 1716, 1716, 1716, 1716, 1716, 1716, 1716, 1716, 1716, 1716, 1716, 1716, 1716, 1716, 1716, 1716, 1716, 1716, 1716, 1716, 1716, 1716, 1716, 1716, 1716, 1716, 1716, 1716, 1716, 1716, 1716, 1716, 1716, 1716, 1716, 1716, 1716, 1716, 1716, 1716, 1716, 1716, 1716, 1716, 1716, 1716, 1716, 1716, 1716, 1716, 1716, 1716, 1716, 1716, 1716, 1716, 1716, 1716, 1716]","[1010, 1010, 1009, 1009, 1009, 1009, 1009, 1009, 1009, 1009, 1009, 1009, 1009, 1009, 1009, 1009, 1009, 1009, 1009, 1009, 1008, 1004, 995, 990, 983, 979, 964, 955, 947, 937, 915, 909, 898, 889, 871, 865, 857, 849, 832, 817, 804, 793, 772, 763, 756, 750, 737, 729, 720, 709, 687, 677, 663, 653, 631, 622, 614, 604, 584, 577, 571, 563, 545, 534, 524, 513, 493, 483, 473, 461, 440, 429, 420, 410, 392, 383, 366, 346, 322, 312, 303, 294, 274, 264, 254, 246, 227, 217, 209, 201, 181, 174, 164, 155, 135, 127, 119, 114, 105, 101, 97, 95, 90, 89, 87, 85, 84, 83, 83, 83, 81, 81, 80, 79, 78, 78, 78, 78, 78, 78, 78, 78, 78, 78, 78, 78, 78, 78, 78, 78, 78, 78, 78, 78, 78, 78, 78, 78, 78, 78, 78, 78, 78, 78, 78, 78, 78, 78, 78, 78, 78, 78, 78, 78, 78, 78, 78, 78, 78, 78, 78, 78, 78, 78, 78, 78, 78, 78, 78, 78, 78, 78, 78, 78, 78, 78, 78, 78, 78, 78, 78, 78, 78, 78, 78, 78, 78, 78, 78, 78]"
"Trust","Teilnehmer A hat Ihnen 2 Punkte übermittelt.","Payback","1","undefined","19","0","6","60","1080","231","5","1","1542","0","legacy","[11, 21, 31, 41, 51, 61, 71, 81, 91, 101, 111, 121, 131, 141, 151, 161, 171, 181, 191, 201, 211, 221, 231, 241, 251, 261, 271, 281, 291, 301, 311, 321, 331, 341, 351, 361, 371, 381, 391, 401, 411, 421, 431, 441, 451, 461, 471, 481, 491, 501, 511, 521, 531, 541, 551, 561, 571, 581, 591, 601, 611, 621, 631, 641, 651, 661, 671, 681, 691, 701, 711, 721, 731, 741, 751, 761, 771, 781, 791, 801, 811, 821, 831, 841, 851, 861, 871, 881, 891, 901, 911, 921, 931, 941, 951, 961, 971, 981, 991, 1001, 1011, 1021, 1031, 1041, 1051, 1061, 1071, 1081, 1091, 1101, 1111, 1121, 1131, 1141, 1151, 1161, 1171, 1181, 1191, 1201, 1211, 1221, 1231, 1241, 1251, 1261, 1271, 1281, 1291, 1301, 1311, 1321, 1331, 1341, 1351, 1361, 1371, 1381, 1391, 1401, 1411, 1421, 1431, 1441, 1451, 1461, 1471, 1481, 1491, 1501, 1511, 1521, 1531, 1541]","1138","1920","[960, 960, 960, 960, 960, 960, 960, 960, 960, 960, 960, 960, 960, 960, 960, 960, 960, 960, 960, 963, 976, 991, 1042, 1073, 1109, 1152, 1233, 1273, 1310, 1338, 1387, 1407, 1419, 1431, 1450, 1457, 1463, 1468, 1473, 1476, 1479, 1481, 1489, 1491, 1495, 1496, 1504, 1508, 1512, 1516, 1526, 1532, 1539, 1544, 1558, 1566, 1572, 1579, 1594, 1599, 1601, 1605, 1611, 1614, 1616, 1617, 1620, 1621, 1621, 1622, 1625, 1626, 1626, 1627, 1632, 1634, 1637, 1644, 1653, 1660, 1669, 1677, 1695, 1704, 1718, 1727, 1751, 1759, 1768, 1777, 1795, 1802, 1805, 1809, 1815, 1818, 1819, 1819, 1820, 1820, 1821, 1821, 1821, 1821, 1821, 1821, 1821, 1821, 1821, 1821, 1821, 1821, 1821, 1821, 1821, 1821, 1821, 1821, 1821, 1821, 1821, 1821, 1821, 1821, 1821, 1821, 1821, 1821, 1821, 1821, 1821, 1821, 1821, 1821, 1821, 1821, 1821, 1821, 1821, 1821, 1821, 1821, 1821, 1821, 1821, 1821, 1821, 1821, 1821, 1821, 1821, 1821, 1821, 1821]","[1010, 1010, 1010, 1010, 1010, 1010, 1010, 1010, 1010, 1010, 1010, 1010, 1010, 1010, 1010, 1010, 1010, 1010, 1010, 1000, 979, 952, 884, 845, 805, 763, 687, 653, 624, 603, 564, 548, 539, 529, 513, 507, 502, 497, 490, 487, 481, 479, 469, 466, 461, 457, 447, 442, 438, 434, 424, 417, 411, 404, 387, 379, 373, 367, 353, 348, 346, 341, 332, 328, 324, 324, 315, 311, 308, 305, 296, 291, 287, 283, 268, 261, 255, 245, 227, 216, 202, 192, 167, 155, 139, 130, 105, 96, 87, 77, 62, 57, 53, 48, 42, 38, 37, 36, 34, 34, 33, 33, 32, 31, 30, 29, 25, 23, 22, 21, 18, 17, 17, 17, 16, 16, 16, 16, 16, 16, 16, 16, 16, 16, 16, 16, 16, 16, 16, 16, 16, 16, 16, 16, 16, 16, 16, 16, 16, 16, 16, 16, 16, 16, 16, 16, 16, 16, 16, 16, 16, 16, 16, 16]"
"Trust","Teilnehmer A hat Ihnen 2 Punkte übermittelt.","Payback","1","undefined","20","0","6","60","1080","281","5","1","1261","0","legacy","[11, 21, 31, 41, 51, 61, 71, 81, 91, 101, 111, 121, 131, 141, 151, 161, 171, 181, 191, 201, 211, 221, 231, 241, 251, 261, 271, 281, 291, 301, 311, 321, 331, 341, 351, 361, 371, 381, 391, 401, 411, 421, 431, 441, 451, 461, 471, 481, 491, 501, 511, 521, 531, 541, 551, 561, 571, 581, 591, 601, 611, 621, 631, 641, 651, 661, 671, 681, 691, 701, 711, 721, 731, 741, 751, 761, 771, 781, 791, 801, 811, 821, 831, 841, 851, 861, 871, 881, 891, 901, 911, 921, 931, 941, 951, 961, 971, 981, 991, 1001, 1011, 1021, 1031, 1041, 1051, 1061, 1071, 1081, 1091, 1101, 1111, 1121, 1131, 1141, 1151, 1161, 1171, 1181, 1191, 1201, 1211, 1221, 1231, 1241, 1251, 1261]","1138","1920","[960, 960, 960, 960, 960, 960, 960, 960, 960, 960, 960, 960, 960, 960, 960, 960, 960, 960, 960, 964, 971, 978, 993, 1001, 1012, 1024, 1053, 1065, 1078, 1092, 1113, 1122, 1128, 1132, 1140, 1143, 1147, 1150, 1157, 1159, 1163, 1168, 1182, 1191, 1201, 1219, 1259, 1288, 1330, 1375, 1453, 1495, 1532, 1562, 1619, 1645, 1672, 1695, 1748, 1768, 1788, 1811, 1843, 1861, 1874, 1894, 1919, 1919, 1919, 1919, 1919, 1919, 1919, 1919, 1919, 1919, 1919, 1919, 1919, 1919, 1919, 1919, 1918, 1917, 1916, 1915, 1912, 1909, 1907, 1905, 1903, 1902, 1902, 1901, 1899, 1899, 1899, 1897, 1893, 1890, 1885, 1879, 1861, 1851, 1842, 1835, 1826, 1824, 1824, 1824, 1824, 1824, 1824, 1824, 1823, 1823, 1823, 1823, 1823, 1823, 1823, 1823, 1823, 1823, 1823, 1823]","[1010, 1010, 1010, 1010, 1010, 1010, 1010, 1010, 1010, 1010, 1010, 1010, 1010, 1010, 1010, 1010, 1010, 1010, 1010, 1007, 1000, 994, 981, 975, 968, 960, 942, 935, 926, 916, 901, 893, 887, 883, 875, 870, 864, 860, 850, 846, 838, 831, 813, 803, 789, 771, 733, 707, 675, 645, 588, 554, 525, 495, 447, 424, 401, 381, 334, 308, 284, 258, 213, 190, 173, 152, 110, 91, 70, 52, 9, 0, 0, 0, 0, 0, 0, 0, 0, 0, 0, 0, 0, 0, 0, 0, 0, 0, 0, 0, 0, 0, 0, 0, 0, 0, 0, 0, 0, 0, 0, 0, 8, 11, 15, 18, 22, 23, 23, 23, 23, 23, 23, 23, 24, 24, 24, 24, 24, 24, 24, 24, 24, 24, 24, 24]"
"Promise","Wie oft werden Sie die Hälfte zurückgeben?","Promise","1","undefined","20","0","7","60","1080","641","5","1","1759","0","legacy","[11, 21, 31, 41, 51, 61, 71, 81, 91, 101, 111, 121, 131, 141, 151, 161, 171, 181, 191, 201, 211, 221, 231, 241, 251, 261, 271, 281, 291, 301, 311, 321, 331, 341, 351, 361, 371, 381, 391, 401, 411, 421, 431, 441, 451, 461, 471, 481, 491, 501, 511, 521, 531, 541, 551, 561, 571, 581, 591, 601, 611, 621, 631, 641, 651, 661, 671, 681, 691, 701, 711, 721, 731, 741, 751, 761, 771, 781, 791, 801, 811, 821, 831, 841, 851, 861, 871, 881, 891, 901, 911, 921, 931, 941, 951, 961, 971, 981, 991, 1001, 1011, 1021, 1031, 1041, 1051, 1061, 1071, 1081, 1091, 1101, 1111, 1121, 1131, 1141, 1151, 1161, 1171, 1181, 1191, 1201, 1211, 1221, 1231, 1241, 1251, 1261, 1271, 1281, 1291, 1301, 1311, 1321, 1331, 1341, 1351, 1361, 1371, 1381, 1391, 1401, 1411, 1421, 1431, 1441, 1451, 1461, 1471, 1481, 1491, 1501, 1511, 1521, 1531, 1541, 1551, 1561, 1571, 1581, 1591, 1601, 1611, 1621, 1631, 1641, 1651, 1661, 1671, 1681, 1691, 1701, 1711, 1721, 1731, 1741, 1751]","1138","1920","[960, 960, 960, 960, 960, 960, 960, 960, 960, 960, 960, 960, 960, 960, 960, 960, 960, 960, 960, 960, 960, 960, 960, 960, 960, 960, 960, 960, 960, 960, 960, 960, 960, 960, 960, 960, 960, 960, 960, 960, 960, 960, 960, 960, 960, 960, 960, 960, 960, 960, 960, 960, 960, 960, 960, 960, 960, 965, 980, 1038, 1077, 1113, 1160, 1246, 1288, 1336, 1377, 1478, 1530, 1594, 1646, 1747, 1791, 1827, 1854, 1884, 1894, 1901, 1907, 1911, 1912, 1916, 1917, 1919, 1919, 1919, 1919, 1919, 1919, 1919, 1919, 1919, 1919, 1919, 1919, 1919, 1919, 1919, 1919, 1916, 1914, 1910, 1908, 1900, 1897, 1893, 1888, 1881, 1878, 1874, 1873, 1869, 1866, 1864, 1863, 1861, 1861, 1861, 1860, 1859, 1859, 1859, 1859, 1858, 1858, 1858, 1857, 1855, 1854, 1851, 1848, 1838, 1834, 1828, 1823, 1817, 1813, 1810, 1808, 1805, 1804, 1803, 1801, 1801, 1801, 1801, 1801, 1801, 1801, 1801, 1800, 1800, 1800, 1800, 1800, 1800, 1800, 1800, 1800, 1800, 1800, 1800, 1800, 1800, 1800, 1800, 1800, 1800, 1800, 1800, 1800, 1800, 1800, 1800, 1800]","[1010, 1010, 1010, 1010, 1010, 1010, 1010, 1010, 1010, 1010, 1010, 1010, 1010, 1010, 1010, 1010, 1010, 1010, 1010, 1010, 1010, 1010, 1010, 1010, 1010, 1010, 1010, 1010, 1010, 1010, 1010, 1010, 1010, 1010, 1010, 1010, 1010, 1010, 1010, 1010, 1010, 1010, 1010, 1010, 1010, 1010, 1010, 1010, 1010, 1010, 1010, 1010, 1010, 1010, 1010, 1010, 1010, 1010, 1010, 998, 987, 978, 962, 939, 924, 904, 883, 825, 791, 750, 718, 660, 635, 614, 597, 578, 572, 566, 560, 554, 551, 545, 542, 535, 531, 523, 515, 493, 478, 464, 449, 425, 412, 400, 388, 363, 352, 343, 332, 312, 304, 294, 284, 263, 254, 244, 236, 222, 216, 211, 209, 204, 203, 200, 200, 198, 197, 197, 196, 195, 195, 195, 195, 194, 194, 193, 191, 188, 183, 179, 171, 156, 148, 140, 133, 123, 117, 111, 107, 98, 95, 93, 90, 88, 87, 87, 87, 86, 85, 85, 84, 84, 84, 84, 84, 84, 84, 84, 84, 84, 84, 84, 84, 84, 84, 84, 84, 84, 84, 84, 84, 84, 84, 84, 84]"
"Trust","Teilnehmer A hat Ihnen 2 Punkte übermittelt.","Payback","1","undefined","21","0","7","60","1080","311","5","1","1181","0","legacy","[11, 21, 31, 41, 51, 61, 71, 81, 91, 101, 111, 121, 131, 141, 151, 161, 171, 181, 191, 201, 211, 221, 231, 241, 251, 261, 271, 281, 291, 301, 311, 321, 331, 341, 351, 361, 371, 381, 391, 401, 411, 421, 431, 441, 451, 461, 471, 481, 491, 501, 511, 521, 531, 541, 551, 561, 571, 581, 591, 601, 611, 621, 631, 641, 651, 661, 671, 681, 691, 701, 711, 721, 731, 741, 751, 761, 771, 781, 791, 801, 811, 821, 831, 841, 851, 861, 871, 881, 891, 901, 911, 921, 931, 941, 951, 961, 971, 981, 991, 1001, 1011, 1021, 1031, 1041, 1051, 1061, 1071, 1081, 1091, 1101, 1111, 1121, 1131, 1141, 1151, 1161, 1171, 1181]","1138","1920","[960, 960, 960, 960, 960, 960, 960, 960, 960, 960, 960, 960, 960, 960, 960, 960, 960, 960, 960, 960, 960, 960, 960, 960, 960, 960, 962, 967, 971, 978, 993, 1001, 1013, 1029, 1063, 1080, 1099, 1119, 1160, 1177, 1194, 1211, 1233, 1249, 1258, 1268, 1289, 1298, 1307, 1317, 1340, 1353, 1367, 1379, 1401, 1408, 1417, 1430, 1456, 1476, 1493, 1513, 1547, 1555, 1564, 1572, 1590, 1598, 1604, 1608, 1621, 1629, 1638, 1645, 1656, 1660, 1663, 1666, 1672, 1679, 1686, 1690, 1700, 1705, 1710, 1715, 1721, 1722, 1723, 1725, 1730, 1734, 1736, 1738, 1742, 1743, 1744, 1746, 1749, 1750, 1751, 1751, 1752, 1752, 1752, 1753, 1753, 1753, 1753, 1753, 1753, 1753, 1753, 1753, 1753, 1753, 1753, 1753]","[1010, 1010, 1010, 1010, 1010, 1010, 1010, 1010, 1010, 1010, 1010, 1010, 1010, 1010, 1010, 1010, 1010, 1010, 1010, 1010, 1010, 1010, 1010, 1006, 998, 992, 975, 965, 957, 945, 923, 913, 899, 883, 848, 830, 809, 785, 739, 718, 698, 679, 652, 636, 626, 617, 600, 593, 584, 575, 555, 546, 538, 528, 512, 506, 501, 494, 474, 460, 447, 433, 409, 403, 395, 389, 377, 372, 367, 360, 341, 328, 316, 307, 292, 285, 279, 274, 259, 246, 238, 228, 210, 203, 196, 190, 181, 176, 174, 170, 158, 152, 144, 141, 128, 123, 116, 111, 102, 99, 96, 94, 91, 89, 87, 86, 83, 83, 82, 82, 82, 82, 82, 82, 82, 82, 82, 82]"
"Trust","Teilnehmer A hat Ihnen 2 Punkte übermittelt.","Payback","1","undefined","22","0","7","60","1080","311","5","1","1156","0","legacy","[11, 21, 31, 41, 51, 61, 71, 81, 91, 101, 111, 121, 131, 141, 151, 161, 171, 181, 191, 201, 211, 221, 231, 241, 251, 261, 271, 281, 291, 301, 311, 321, 331, 341, 351, 361, 371, 381, 391, 401, 411, 421, 431, 441, 451, 461, 471, 481, 491, 501, 511, 521, 531, 541, 551, 561, 571, 581, 591, 601, 611, 621, 631, 641, 651, 661, 671, 681, 691, 701, 711, 721, 731, 741, 751, 761, 771, 781, 791, 801, 811, 821, 831, 841, 851, 861, 871, 881, 891, 901, 911, 921, 931, 941, 951, 961, 971, 981, 991, 1001, 1011, 1021, 1031, 1041, 1051, 1061, 1071, 1081, 1091, 1101, 1111, 1121, 1131, 1141, 1151]","1138","1920","[960, 960, 960, 960, 960, 960, 960, 960, 960, 960, 960, 960, 960, 960, 960, 960, 960, 960, 960, 960, 956, 943, 938, 938, 938, 940, 947, 958, 961, 985, 1004, 1030, 1056, 1090, 1143, 1196, 1251, 1347, 1386, 1421, 1445, 1490, 1510, 1529, 1549, 1571, 1582, 1588, 1595, 1604, 1606, 1609, 1609, 1614, 1616, 1621, 1624, 1634, 1639, 1644, 1651, 1662, 1666, 1670, 1676, 1682, 1685, 1688, 1692, 1697, 1699, 1703, 1708, 1716, 1722, 1727, 1735, 1750, 1757, 1762, 1766, 1777, 1781, 1785, 1787, 1791, 1792, 1793, 1794, 1795, 1795, 1795, 1795, 1795, 1795, 1795, 1795, 1795, 1795, 1795, 1795, 1795, 1795, 1795, 1795, 1795, 1795, 1795, 1795, 1795, 1795, 1795, 1795, 1795, 1795]","[1010, 1010, 1010, 1010, 1010, 1010, 1010, 1010, 1010, 1010, 1010, 1010, 1010, 1010, 1010, 1010, 1010, 1010, 1009, 1009, 1006, 999, 997, 996, 993, 987, 980, 970, 966, 947, 936, 915, 894, 876, 841, 805, 764, 692, 660, 629, 607, 555, 531, 510, 487, 456, 441, 431, 424, 402, 395, 387, 381, 365, 358, 349, 340, 323, 313, 306, 294, 277, 268, 259, 251, 235, 227, 219, 209, 194, 187, 178, 170, 157, 150, 145, 138, 125, 120, 114, 108, 94, 88, 83, 80, 74, 72, 71, 70, 68, 68, 67, 67, 67, 67, 67, 67, 67, 67, 67, 67, 67, 67, 67, 67, 67, 67, 67, 67, 67, 67, 67, 67, 67, 67]"
"Trust","Teilnehmer A hat Ihnen 2 Punkte übermittelt.","Payback","1","undefined","23","0","7","60","1080","321","5","1","1011","0","legacy","[11, 21, 31, 41, 51, 61, 71, 81, 91, 101, 111, 121, 131, 141, 151, 161, 171, 181, 191, 201, 211, 221, 231, 241, 251, 261, 271, 281, 291, 301, 311, 321, 331, 341, 351, 361, 371, 381, 391, 401, 411, 421, 431, 441, 451, 461, 471, 481, 491, 501, 511, 521, 531, 541, 551, 561, 571, 581, 591, 601, 611, 621, 631, 641, 651, 661, 671, 681, 691, 701, 711, 721, 731, 741, 751, 761, 771, 781, 791, 801, 811, 821, 831, 841, 851, 861, 871, 881, 891, 901, 911, 921, 931, 941, 951, 961, 971, 981, 991, 1001, 1011]","1138","1920","[960, 960, 960, 960, 960, 960, 960, 960, 960, 960, 960, 960, 960, 960, 960, 960, 960, 960, 963, 965, 967, 972, 976, 979, 981, 984, 986, 987, 991, 1011, 1033, 1064, 1110, 1207, 1256, 1301, 1350, 1446, 1497, 1543, 1595, 1689, 1732, 1768, 1804, 1844, 1854, 1862, 1871, 1883, 1888, 1892, 1897, 1905, 1906, 1909, 1909, 1909, 1909, 1909, 1909, 1909, 1909, 1909, 1909, 1907, 1905, 1903, 1900, 1897, 1895, 1893, 1891, 1887, 1884, 1883, 1882, 1881, 1881, 1881, 1881, 1881, 1881, 1881, 1881, 1881, 1881, 1881, 1881, 1881, 1881, 1881, 1881, 1881, 1881, 1881, 1881, 1881, 1881, 1881, 1881]","[1010, 1010, 1010, 1010, 1010, 1010, 1010, 1010, 1010, 1010, 1010, 1010, 1010, 1010, 1010, 1010, 1010, 1010, 1010, 1009, 1009, 1007, 1006, 1003, 1003, 1001, 1000, 998, 995, 973, 951, 914, 868, 780, 733, 692, 650, 566, 521, 473, 421, 333, 296, 272, 247, 218, 210, 202, 193, 175, 164, 153, 144, 131, 126, 123, 120, 116, 113, 110, 109, 102, 98, 96, 95, 90, 87, 83, 80, 75, 71, 66, 60, 49, 43, 40, 37, 33, 33, 31, 30, 29, 29, 29, 29, 29, 29, 29, 29, 29, 29, 29, 29, 29, 29, 29, 29, 29, 29, 29, 29]"
CHF,TotCHF,final_payoff,sum
"10","30","[5, 5, 5, 5]","20"
