Condition,PromiseStage,Stage,accuracy,avg_rt,count_decision_sequence,count_loop1,count_trial_sequence,font_size,height,init_time,payoff,response,rt,subject_nr,synth_backend,tTrajectory,time_experiment,width,xTrajectory,yTrajectory
"Promise","Wie oft werden Sie die Hälfte zurückgeben?","Promise","1","undefined","NA","0","0","60","1080","221","NA","1","1575","0","legacy","[11, 21, 31, 41, 51, 61, 71, 81, 91, 101, 111, 121, 131, 141, 151, 161, 171, 181, 191, 201, 211, 221, 231, 241, 251, 261, 271, 281, 291, 301, 311, 321, 331, 341, 351, 361, 371, 381, 391, 401, 411, 421, 431, 441, 451, 461, 471, 481, 491, 501, 511, 521, 531, 541, 551, 561, 571, 581, 591, 601, 611, 621, 631, 641, 651, 661, 671, 681, 691, 701, 711, 721, 731, 741, 751, 761, 771, 781, 791, 801, 811, 821, 831, 841, 851, 861, 871, 881, 891, 901, 911, 921, 931, 941, 951, 961, 971, 981, 991, 1001, 1011, 1021, 1031, 1041, 1051, 1061, 1071, 1081, 1091, 1101, 1111, 1121, 1131, 1141, 1151, 1161, 1171, 1181, 1191, 1201, 1211, 1221, 1231, 1241, 1251, 1261, 1271, 1281, 1291, 1301, 1311, 1321, 1331, 1341, 1351, 1361, 1371, 1381, 1391, 1401, 1411, 1421, 1431, 1441, 1451, 1461, 1471, 1481, 1491, 1501, 1511, 1521, 1531, 1541, 1551, 1561, 1571]","1104","1920","[960, 960, 960, 960, 960, 960, 960, 960, 960, 960, 960, 962, 965, 969, 974, 982, 987, 992, 997, 1010, 1016, 1021, 1026, 1036, 1039, 1044, 1049, 1058, 1063, 1068, 1075, 1092, 1102, 1111, 1121, 1140, 1150, 1159, 1167, 1187, 1194, 1201, 1209, 1225, 1233, 1242, 1248, 1260, 1265, 1273, 1279, 1290, 1296, 1301, 1307, 1318, 1323, 1329, 1333, 1341, 1344, 1350, 1353, 1363, 1367, 1372, 1378, 1384, 1389, 1394, 1401, 1411, 1418, 1423, 1430, 1443, 1450, 1455, 1460, 1468, 1472, 1477, 1481, 1487, 1492, 1497, 1504, 1514, 1521, 1525, 1532, 1538, 1543, 1547, 1550, 1556, 1561, 1564, 1568, 1574, 1577, 1580, 1580, 1584, 1584, 1587, 1588, 1590, 1592, 1592, 1593, 1595, 1596, 1597, 1598, 1599, 1601, 1601, 1603, 1606, 1608, 1611, 1613, 1620, 1621, 1626, 1630, 1636, 1640, 1642, 1645, 1653, 1655, 1657, 1661, 1668, 1672, 1676, 1678, 1688, 1691, 1696, 1697, 1700, 1701, 1703, 1703, 1703, 1703, 1703, 1703, 1703, 1703, 1703, 1703, 1703, 1703]","[1010, 1010, 1010, 1010, 1010, 1010, 1010, 1010, 1010, 1010, 1008, 1002, 998, 994, 989, 981, 976, 969, 964, 949, 943, 938, 934, 926, 922, 917, 912, 904, 899, 894, 886, 872, 865, 858, 852, 840, 833, 826, 820, 804, 799, 793, 788, 776, 770, 762, 757, 746, 741, 734, 727, 713, 707, 700, 691, 676, 668, 662, 657, 647, 642, 636, 632, 620, 614, 605, 597, 585, 576, 570, 561, 542, 534, 525, 517, 498, 489, 482, 474, 462, 455, 447, 442, 427, 419, 409, 400, 381, 371, 362, 353, 342, 335, 329, 325, 316, 309, 305, 300, 290, 286, 283, 281, 277, 276, 272, 271, 264, 261, 259, 258, 254, 252, 250, 248, 244, 242, 239, 237, 232, 229, 226, 222, 213, 209, 202, 196, 183, 179, 175, 169, 157, 150, 144, 138, 125, 119, 114, 111, 98, 95, 90, 85, 76, 74, 71, 70, 70, 70, 70, 70, 70, 70, 70, 70, 70, 70]"
Cond,DecisionB,Stage,accuracy,avg_rt,count_decision_sequence,count_loop1,count_trial_sequence,font_size,height,init_time,payoff,response,rt,subject_nr,synth_backend,tTrajectory,time_experiment,width,xTrajectory,yTrajectory
"Trust","Teilnehmer A hat Ihnen 2 Punkte übermittelt.","Payback","1","undefined","0","0","0","60","1080","391","5","1","1606","0","legacy","[11, 21, 31, 41, 51, 61, 71, 81, 91, 101, 111, 121, 131, 141, 151, 161, 171, 181, 191, 201, 211, 221, 231, 241, 251, 261, 271, 281, 291, 301, 311, 321, 331, 341, 351, 361, 371, 381, 391, 401, 411, 421, 431, 441, 451, 461, 471, 481, 491, 501, 511, 521, 531, 541, 551, 561, 571, 581, 591, 601, 611, 621, 631, 641, 651, 661, 671, 681, 691, 701, 711, 721, 731, 741, 751, 761, 771, 781, 791, 801, 811, 821, 831, 841, 851, 861, 871, 881, 891, 901, 911, 921, 931, 941, 951, 961, 971, 981, 991, 1001, 1011, 1021, 1031, 1041, 1051, 1061, 1071, 1081, 1091, 1101, 1111, 1121, 1131, 1141, 1151, 1161, 1171, 1181, 1191, 1201, 1211, 1221, 1231, 1241, 1251, 1261, 1271, 1281, 1291, 1301, 1311, 1321, 1331, 1341, 1351, 1361, 1371, 1381, 1391, 1401, 1411, 1421, 1431, 1441, 1451, 1461, 1471, 1481, 1491, 1501, 1511, 1521, 1531, 1541, 1551, 1561, 1571, 1581, 1591, 1601]","1104","1920","[960, 960, 960, 960, 960, 960, 960, 960, 960, 960, 960, 960, 960, 960, 960, 960, 960, 960, 960, 960, 960, 961, 962, 962, 963, 963, 967, 967, 970, 972, 978, 981, 985, 989, 998, 1002, 1007, 1012, 1023, 1026, 1031, 1037, 1046, 1050, 1053, 1057, 1063, 1067, 1073, 1075, 1086, 1091, 1098, 1103, 1114, 1119, 1123, 1126, 1137, 1143, 1147, 1152, 1164, 1169, 1177, 1183, 1194, 1198, 1203, 1208, 1217, 1223, 1227, 1232, 1243, 1248, 1255, 1260, 1267, 1271, 1274, 1278, 1287, 1292, 1297, 1303, 1311, 1318, 1319, 1325, 1335, 1340, 1344, 1349, 1357, 1362, 1366, 1373, 1383, 1389, 1394, 1401, 1410, 1414, 1419, 1424, 1433, 1438, 1441, 1445, 1457, 1465, 1471, 1475, 1486, 1493, 1500, 1505, 1512, 1515, 1520, 1526, 1536, 1539, 1543, 1546, 1551, 1554, 1555, 1557, 1566, 1569, 1572, 1580, 1594, 1600, 1610, 1619, 1632, 1638, 1641, 1645, 1650, 1651, 1652, 1654, 1654, 1655, 1656, 1657, 1659, 1660, 1661, 1661, 1661, 1661, 1661, 1661, 1661, 1661]","[1010, 1010, 1010, 1010, 1010, 1010, 1010, 1010, 1010, 1010, 1010, 1010, 1010, 1010, 1010, 1010, 1010, 1010, 1010, 1010, 1010, 1010, 1009, 1008, 1006, 1004, 998, 996, 992, 988, 979, 975, 970, 965, 955, 951, 946, 941, 928, 923, 918, 911, 899, 892, 887, 882, 870, 865, 856, 851, 837, 830, 824, 817, 803, 796, 791, 784, 767, 760, 754, 746, 731, 725, 716, 708, 696, 687, 679, 672, 657, 648, 642, 636, 621, 613, 607, 602, 593, 588, 585, 581, 569, 564, 558, 552, 542, 535, 531, 525, 510, 504, 495, 489, 475, 468, 462, 452, 436, 429, 419, 411, 398, 391, 386, 380, 368, 360, 355, 351, 334, 326, 319, 315, 301, 292, 286, 280, 269, 263, 256, 249, 234, 228, 223, 216, 210, 206, 203, 201, 190, 185, 180, 172, 159, 154, 147, 142, 133, 128, 127, 124, 120, 119, 119, 117, 117, 116, 116, 115, 114, 113, 112, 112, 112, 112, 112, 112, 112, 112]"
"NoTrust","Teilnehmer A hat Ihnen keine 2 Punkte übermittelt.","Payback","1","undefined","1","0","0","60","1080","391","0","1","1606","0","legacy","[11, 21, 31, 41, 51, 61, 71, 81, 91, 101, 111, 121, 131, 141, 151, 161, 171, 181, 191, 201, 211, 221, 231, 241, 251, 261, 271, 281, 291, 301, 311, 321, 331, 341, 351, 361, 371, 381, 391, 401, 411, 421, 431, 441, 451, 461, 471, 481, 491, 501, 511, 521, 531, 541, 551, 561, 571, 581, 591, 601, 611, 621, 631, 641, 651, 661, 671, 681, 691, 701, 711, 721, 731, 741, 751, 761, 771, 781, 791, 801, 811, 821, 831, 841, 851, 861, 871, 881, 891, 901, 911, 921, 931, 941, 951, 961, 971, 981, 991, 1001, 1011, 1021, 1031, 1041, 1051, 1061, 1071, 1081, 1091, 1101, 1111, 1121, 1131, 1141, 1151, 1161, 1171, 1181, 1191, 1201, 1211, 1221, 1231, 1241, 1251, 1261, 1271, 1281, 1291, 1301, 1311, 1321, 1331, 1341, 1351, 1361, 1371, 1381, 1391, 1401, 1411, 1421, 1431, 1441, 1451, 1461, 1471, 1481, 1491, 1501, 1511, 1521, 1531, 1541, 1551, 1561, 1571, 1581, 1591, 1601]","1104","1920","[960, 960, 960, 960, 960, 960, 960, 960, 960, 960, 960, 960, 960, 960, 960, 960, 960, 960, 960, 960, 960, 961, 962, 962, 963, 963, 967, 967, 970, 972, 978, 981, 985, 989, 998, 1002, 1007, 1012, 1023, 1026, 1031, 1037, 1046, 1050, 1053, 1057, 1063, 1067, 1073, 1075, 1086, 1091, 1098, 1103, 1114, 1119, 1123, 1126, 1137, 1143, 1147, 1152, 1164, 1169, 1177, 1183, 1194, 1198, 1203, 1208, 1217, 1223, 1227, 1232, 1243, 1248, 1255, 1260, 1267, 1271, 1274, 1278, 1287, 1292, 1297, 1303, 1311, 1318, 1319, 1325, 1335, 1340, 1344, 1349, 1357, 1362, 1366, 1373, 1383, 1389, 1394, 1401, 1410, 1414, 1419, 1424, 1433, 1438, 1441, 1445, 1457, 1465, 1471, 1475, 1486, 1493, 1500, 1505, 1512, 1515, 1520, 1526, 1536, 1539, 1543, 1546, 1551, 1554, 1555, 1557, 1566, 1569, 1572, 1580, 1594, 1600, 1610, 1619, 1632, 1638, 1641, 1645, 1650, 1651, 1652, 1654, 1654, 1655, 1656, 1657, 1659, 1660, 1661, 1661, 1661, 1661, 1661, 1661, 1661, 1661]","[1010, 1010, 1010, 1010, 1010, 1010, 1010, 1010, 1010, 1010, 1010, 1010, 1010, 1010, 1010, 1010, 1010, 1010, 1010, 1010, 1010, 1010, 1009, 1008, 1006, 1004, 998, 996, 992, 988, 979, 975, 970, 965, 955, 951, 946, 941, 928, 923, 918, 911, 899, 892, 887, 882, 870, 865, 856, 851, 837, 830, 824, 817, 803, 796, 791, 784, 767, 760, 754, 746, 731, 725, 716, 708, 696, 687, 679, 672, 657, 648, 642, 636, 621, 613, 607, 602, 593, 588, 585, 581, 569, 564, 558, 552, 542, 535, 531, 525, 510, 504, 495, 489, 475, 468, 462, 452, 436, 429, 419, 411, 398, 391, 386, 380, 368, 360, 355, 351, 334, 326, 319, 315, 301, 292, 286, 280, 269, 263, 256, 249, 234, 228, 223, 216, 210, 206, 203, 201, 190, 185, 180, 172, 159, 154, 147, 142, 133, 128, 127, 124, 120, 119, 119, 117, 117, 116, 116, 115, 114, 113, 112, 112, 112, 112, 112, 112, 112, 112]"
"Trust","Teilnehmer A hat Ihnen 2 Punkte übermittelt.","Payback","1","undefined","2","0","0","60","1080","301","5","1","2550","0","legacy","[11, 21, 31, 41, 51, 61, 71, 81, 91, 101, 111, 121, 131, 141, 151, 161, 171, 181, 191, 201, 211, 221, 231, 241, 251, 261, 271, 281, 291, 301, 311, 321, 331, 341, 351, 361, 371, 381, 391, 401, 411, 421, 431, 441, 451, 461, 471, 481, 491, 501, 511, 521, 531, 541, 551, 561, 571, 581, 591, 601, 611, 621, 631, 641, 651, 661, 671, 681, 691, 701, 711, 721, 731, 741, 751, 761, 771, 781, 791, 801, 811, 821, 831, 841, 851, 861, 871, 881, 891, 901, 911, 921, 931, 941, 951, 961, 971, 981, 991, 1001, 1011, 1021, 1031, 1041, 1051, 1061, 1071, 1081, 1091, 1101, 1111, 1121, 1131, 1141, 1151, 1161, 1171, 1181, 1191, 1201, 1211, 1221, 1231, 1241, 1251, 1261, 1271, 1281, 1291, 1301, 1311, 1321, 1331, 1341, 1351, 1361, 1371, 1381, 1391, 1401, 1411, 1421, 1431, 1441, 1451, 1461, 1471, 1481, 1491, 1501, 1511, 1521, 1531, 1541, 1551, 1561, 1571, 1581, 1591, 1601, 1611, 1621, 1631, 1641, 1651, 1661, 1671, 1681, 1691, 1701, 1711, 1721, 1731, 1741, 1751, 1761, 1771, 1781, 1791, 1801, 1811, 1821, 1831, 1841, 1851, 1861, 1871, 1881, 1891, 1901, 1911, 1921, 1931, 1941, 1951, 1961, 1971, 1981, 1991, 2001, 2011, 2021, 2031, 2041, 2051, 2061, 2071, 2081, 2091, 2101, 2111, 2121, 2131, 2141, 2151, 2161, 2171, 2181, 2191, 2201, 2211, 2221, 2231, 2241, 2251, 2261, 2271, 2281, 2291, 2301, 2311, 2321, 2331, 2341, 2351, 2361, 2371, 2381, 2391, 2401, 2411, 2421, 2431, 2441, 2451, 2461, 2471, 2481, 2491, 2501, 2511, 2521, 2531, 2541]","1104","1920","[960, 960, 960, 960, 960, 960, 960, 960, 960, 960, 960, 960, 960, 960, 960, 960, 960, 960, 960, 960, 963, 965, 972, 974, 978, 979, 984, 985, 987, 991, 996, 998, 1003, 1007, 1021, 1028, 1034, 1039, 1051, 1056, 1062, 1067, 1075, 1080, 1086, 1091, 1099, 1105, 1109, 1114, 1123, 1128, 1133, 1136, 1147, 1154, 1159, 1165, 1177, 1182, 1188, 1195, 1204, 1210, 1218, 1223, 1235, 1243, 1251, 1257, 1273, 1281, 1286, 1294, 1309, 1317, 1324, 1330, 1340, 1348, 1357, 1368, 1392, 1405, 1414, 1421, 1433, 1438, 1444, 1450, 1460, 1467, 1472, 1477, 1487, 1491, 1496, 1499, 1505, 1509, 1512, 1514, 1520, 1523, 1524, 1527, 1533, 1535, 1539, 1543, 1551, 1554, 1558, 1563, 1573, 1578, 1582, 1587, 1593, 1596, 1599, 1601, 1608, 1610, 1612, 1616, 1623, 1628, 1636, 1641, 1650, 1653, 1657, 1661, 1668, 1672, 1675, 1680, 1686, 1687, 1690, 1691, 1692, 1692, 1692, 1695, 1698, 1699, 1699, 1700, 1700, 1700, 1700, 1700, 1700, 1700, 1700, 1700, 1700, 1700, 1700, 1700, 1700, 1700, 1700, 1700, 1700, 1700, 1700, 1700, 1700, 1700, 1700, 1700, 1700, 1700, 1700, 1700, 1700, 1700, 1700, 1700, 1700, 1700, 1700, 1700, 1700, 1700, 1700, 1700, 1700, 1700, 1700, 1700, 1700, 1700, 1700, 1700, 1700, 1700, 1700, 1700, 1700, 1700, 1700, 1700, 1700, 1700, 1700, 1700, 1700, 1700, 1700, 1700, 1700, 1700, 1700, 1700, 1700, 1700, 1700, 1700, 1700, 1700, 1700, 1700, 1700, 1700, 1700, 1700, 1700, 1700, 1700, 1700, 1700, 1700, 1700, 1700, 1700, 1700, 1700, 1700, 1700, 1700, 1700, 1700, 1700, 1700, 1700, 1700, 1700, 1700, 1700, 1700]","[1010, 1010, 1010, 1010, 1010, 1010, 1010, 1010, 1010, 1010, 1010, 1010, 1010, 1009, 1008, 1008, 1007, 1006, 1002, 1000, 996, 991, 979, 971, 964, 960, 951, 946, 943, 938, 931, 928, 921, 914, 897, 891, 882, 876, 858, 852, 846, 839, 827, 819, 812, 804, 791, 785, 780, 772, 761, 755, 748, 742, 728, 721, 715, 708, 697, 691, 684, 678, 665, 658, 649, 643, 629, 620, 611, 604, 589, 580, 572, 564, 547, 537, 528, 520, 500, 491, 481, 470, 450, 439, 432, 424, 412, 403, 396, 386, 370, 362, 356, 351, 339, 334, 327, 324, 314, 309, 305, 301, 291, 287, 284, 279, 270, 267, 263, 258, 248, 243, 240, 235, 226, 222, 219, 215, 209, 205, 202, 200, 192, 188, 184, 181, 173, 168, 162, 158, 152, 149, 145, 138, 130, 126, 123, 119, 113, 110, 108, 106, 105, 104, 104, 102, 97, 96, 96, 95, 95, 95, 95, 95, 95, 95, 95, 95, 95, 95, 95, 95, 95, 95, 95, 95, 95, 95, 95, 95, 95, 95, 95, 95, 95, 95, 95, 95, 95, 95, 95, 95, 95, 95, 95, 95, 95, 95, 95, 95, 95, 95, 95, 95, 95, 95, 95, 95, 95, 95, 95, 95, 95, 95, 95, 95, 95, 95, 95, 95, 95, 95, 95, 95, 95, 95, 95, 95, 95, 95, 95, 95, 95, 95, 95, 95, 95, 95, 95, 95, 95, 95, 95, 95, 95, 95, 95, 95, 95, 95, 95, 95, 95, 95, 95, 95, 95, 95, 95, 95, 95, 95, 95, 95]"
"Promise","Wie oft werden Sie die Hälfte zurückgeben?","Promise","1","undefined","2","0","1","60","1080","371","5","1","1721","0","legacy","[11, 21, 31, 41, 51, 61, 71, 81, 91, 101, 111, 121, 131, 141, 151, 161, 171, 181, 191, 201, 211, 221, 231, 241, 251, 261, 271, 281, 291, 301, 311, 321, 331, 341, 351, 361, 371, 381, 391, 401, 411, 421, 431, 441, 451, 461, 471, 481, 491, 501, 511, 521, 531, 541, 551, 561, 571, 581, 591, 601, 611, 621, 631, 641, 651, 661, 671, 681, 691, 701, 711, 721, 731, 741, 751, 761, 771, 781, 791, 801, 811, 821, 831, 841, 851, 861, 871, 881, 891, 901, 911, 921, 931, 941, 951, 961, 971, 981, 991, 1001, 1011, 1021, 1031, 1041, 1051, 1061, 1071, 1081, 1091, 1101, 1111, 1121, 1131, 1141, 1151, 1161, 1171, 1181, 1191, 1201, 1211, 1221, 1231, 1241, 1251, 1261, 1271, 1281, 1291, 1301, 1311, 1321, 1331, 1341, 1351, 1361, 1371, 1381, 1391, 1401, 1411, 1421, 1431, 1441, 1451, 1461, 1471, 1481, 1491, 1501, 1511, 1521, 1531, 1541, 1551, 1561, 1571, 1581, 1591, 1601, 1611, 1621, 1631, 1641, 1651, 1661, 1671, 1681, 1691, 1701, 1711, 1721]","1104","1920","[960, 960, 960, 960, 960, 960, 960, 960, 960, 960, 960, 960, 960, 960, 960, 960, 960, 960, 960, 960, 960, 960, 960, 960, 963, 965, 967, 970, 973, 976, 978, 980, 985, 987, 991, 993, 1000, 1006, 1012, 1016, 1025, 1029, 1034, 1038, 1047, 1050, 1054, 1057, 1065, 1072, 1079, 1081, 1093, 1099, 1105, 1110, 1121, 1127, 1134, 1139, 1155, 1161, 1170, 1178, 1195, 1204, 1211, 1219, 1234, 1240, 1247, 1254, 1272, 1280, 1288, 1297, 1312, 1319, 1325, 1333, 1344, 1348, 1353, 1358, 1370, 1378, 1385, 1391, 1405, 1413, 1420, 1425, 1434, 1440, 1444, 1450, 1465, 1471, 1479, 1487, 1499, 1505, 1512, 1517, 1526, 1530, 1535, 1539, 1551, 1557, 1563, 1567, 1577, 1579, 1582, 1584, 1591, 1594, 1601, 1606, 1615, 1620, 1627, 1628, 1633, 1634, 1636, 1636, 1638, 1638, 1638, 1639, 1640, 1640, 1641, 1641, 1642, 1642, 1642, 1642, 1642, 1643, 1643, 1645, 1645, 1645, 1645, 1646, 1647, 1648, 1649, 1649, 1649, 1649, 1650, 1650, 1650, 1650, 1650, 1651, 1651, 1651, 1651, 1651, 1651, 1651, 1651, 1651, 1651, 1651, 1651, 1651]","[1010, 1010, 1010, 1010, 1010, 1010, 1010, 1010, 1010, 1010, 1010, 1010, 1010, 1010, 1010, 1010, 1010, 1010, 1010, 1010, 1010, 1010, 1008, 1006, 1000, 997, 992, 988, 979, 974, 970, 965, 957, 952, 946, 943, 928, 920, 910, 905, 893, 887, 881, 874, 863, 860, 852, 845, 834, 825, 817, 813, 797, 791, 784, 776, 763, 757, 749, 741, 723, 716, 707, 698, 684, 675, 667, 660, 643, 635, 628, 620, 602, 593, 587, 578, 563, 557, 551, 544, 530, 526, 520, 514, 499, 490, 482, 476, 461, 452, 444, 438, 423, 416, 410, 403, 387, 380, 371, 362, 345, 337, 330, 323, 313, 307, 301, 295, 281, 275, 269, 263, 250, 248, 244, 241, 232, 228, 221, 215, 202, 197, 193, 190, 185, 183, 180, 180, 177, 175, 174, 173, 171, 171, 169, 169, 168, 167, 166, 165, 163, 162, 161, 159, 158, 157, 157, 155, 153, 151, 150, 149, 146, 145, 144, 143, 142, 141, 141, 140, 140, 140, 140, 140, 140, 140, 140, 140, 140, 140, 140, 140]"
"Trust","Teilnehmer A hat Ihnen 2 Punkte übermittelt.","Payback","1","undefined","3","0","1","60","1080","431","5","1","1447","0","legacy","[11, 21, 31, 41, 51, 61, 71, 81, 91, 101, 111, 121, 131, 141, 151, 161, 171, 181, 191, 201, 211, 221, 231, 241, 251, 261, 271, 281, 291, 301, 311, 321, 331, 341, 351, 361, 371, 381, 391, 401, 411, 421, 431, 441, 451, 461, 471, 481, 491, 501, 511, 521, 531, 541, 551, 561, 571, 581, 591, 601, 611, 621, 631, 641, 651, 661, 671, 681, 691, 701, 711, 721, 731, 741, 751, 761, 771, 781, 791, 801, 811, 821, 831, 841, 851, 861, 871, 881, 891, 901, 911, 921, 931, 941, 951, 961, 971, 981, 991, 1001, 1011, 1021, 1031, 1041, 1051, 1061, 1071, 1081, 1091, 1101, 1111, 1121, 1131, 1141, 1151, 1161, 1171, 1181, 1191, 1201, 1211, 1221, 1231, 1241, 1251, 1261, 1271, 1281, 1291, 1301, 1311, 1321, 1331, 1341, 1351, 1361, 1371, 1381, 1391, 1401, 1411, 1421, 1431, 1441]","1104","1920","[960, 960, 960, 960, 960, 960, 960, 960, 960, 960, 960, 960, 960, 960, 960, 960, 960, 960, 960, 960, 960, 960, 960, 962, 962, 963, 965, 970, 971, 974, 975, 979, 982, 984, 989, 998, 1000, 1005, 1009, 1018, 1021, 1025, 1029, 1034, 1038, 1042, 1047, 1058, 1065, 1070, 1079, 1091, 1099, 1103, 1107, 1120, 1126, 1133, 1136, 1149, 1154, 1160, 1167, 1178, 1187, 1195, 1201, 1215, 1223, 1229, 1238, 1255, 1263, 1272, 1278, 1294, 1303, 1311, 1318, 1338, 1347, 1358, 1369, 1386, 1394, 1405, 1412, 1427, 1435, 1442, 1450, 1472, 1480, 1489, 1496, 1512, 1519, 1526, 1531, 1545, 1554, 1563, 1570, 1583, 1588, 1594, 1601, 1610, 1616, 1622, 1631, 1646, 1656, 1662, 1668, 1678, 1683, 1686, 1689, 1699, 1705, 1710, 1714, 1727, 1731, 1735, 1736, 1741, 1744, 1747, 1749, 1754, 1754, 1755, 1756, 1757, 1758, 1759, 1759, 1759, 1759, 1759, 1759, 1759]","[1010, 1010, 1010, 1010, 1010, 1010, 1010, 1010, 1010, 1010, 1010, 1010, 1010, 1010, 1010, 1010, 1010, 1010, 1010, 1010, 1010, 1010, 1010, 1010, 1009, 1008, 1005, 1001, 1000, 997, 995, 990, 987, 983, 978, 968, 967, 962, 957, 949, 945, 941, 938, 929, 924, 921, 916, 905, 899, 894, 887, 876, 869, 865, 862, 851, 845, 838, 835, 822, 817, 812, 806, 795, 787, 779, 773, 758, 751, 745, 736, 720, 711, 702, 696, 679, 670, 663, 654, 631, 621, 609, 601, 582, 574, 566, 559, 544, 534, 525, 515, 493, 483, 475, 469, 454, 447, 439, 430, 411, 401, 391, 382, 365, 357, 349, 339, 323, 314, 304, 288, 267, 255, 246, 239, 225, 219, 214, 206, 193, 184, 177, 170, 156, 151, 147, 144, 139, 134, 129, 124, 117, 116, 114, 113, 112, 112, 111, 111, 111, 111, 111, 111, 111]"
"Trust","Teilnehmer A hat Ihnen 2 Punkte übermittelt.","Payback","1","undefined","4","0","1","60","1080","281","5","1","1295","0","legacy","[11, 21, 31, 41, 51, 61, 71, 81, 91, 101, 111, 121, 131, 141, 151, 161, 171, 181, 191, 201, 211, 221, 231, 241, 251, 261, 271, 281, 291, 301, 311, 321, 331, 341, 351, 361, 371, 381, 391, 401, 411, 421, 431, 441, 451, 461, 471, 481, 491, 501, 511, 521, 531, 541, 551, 561, 571, 581, 591, 601, 611, 621, 631, 641, 651, 661, 671, 681, 691, 701, 711, 721, 731, 741, 751, 761, 771, 781, 791, 801, 811, 821, 831, 841, 851, 861, 871, 881, 891, 901, 911, 921, 931, 941, 951, 961, 971, 981, 991, 1001, 1011, 1021, 1031, 1041, 1051, 1061, 1071, 1081, 1091, 1101, 1111, 1121, 1131, 1141, 1151, 1161, 1171, 1181, 1191, 1201, 1211, 1221, 1231, 1241, 1251, 1261, 1271, 1281, 1291]","1104","1920","[960, 960, 960, 960, 960, 960, 960, 960, 960, 960, 960, 960, 960, 960, 960, 960, 959, 959, 960, 965, 968, 970, 971, 979, 983, 985, 989, 996, 1000, 1004, 1009, 1021, 1026, 1031, 1035, 1043, 1048, 1051, 1055, 1064, 1072, 1079, 1085, 1097, 1105, 1113, 1118, 1131, 1137, 1143, 1151, 1167, 1175, 1178, 1185, 1201, 1212, 1219, 1227, 1248, 1259, 1267, 1276, 1294, 1301, 1307, 1313, 1327, 1335, 1343, 1351, 1366, 1374, 1380, 1385, 1397, 1402, 1405, 1411, 1424, 1430, 1438, 1446, 1465, 1473, 1482, 1487, 1503, 1508, 1515, 1520, 1528, 1532, 1539, 1548, 1559, 1568, 1575, 1581, 1596, 1601, 1606, 1611, 1620, 1622, 1626, 1629, 1634, 1636, 1639, 1642, 1649, 1651, 1652, 1653, 1653, 1653, 1654, 1654, 1654, 1654, 1654, 1654, 1655, 1655, 1655, 1655, 1655, 1655]","[1010, 1010, 1010, 1010, 1010, 1010, 1010, 1010, 1010, 1010, 1010, 1010, 1010, 1010, 1010, 1010, 1010, 1006, 1000, 987, 981, 975, 969, 957, 952, 947, 942, 931, 925, 919, 910, 895, 887, 880, 874, 863, 856, 850, 844, 829, 820, 813, 804, 791, 782, 772, 765, 747, 739, 732, 720, 702, 693, 690, 681, 663, 649, 640, 629, 604, 592, 581, 571, 553, 546, 538, 532, 513, 504, 495, 486, 468, 459, 454, 449, 436, 430, 424, 417, 401, 392, 383, 373, 352, 344, 334, 326, 308, 302, 293, 287, 274, 270, 262, 253, 241, 234, 226, 218, 203, 198, 194, 190, 179, 176, 172, 168, 161, 158, 153, 148, 138, 135, 134, 132, 132, 132, 130, 130, 130, 130, 128, 128, 128, 128, 128, 128, 128, 128]"
"Trust","Teilnehmer A hat Ihnen 2 Punkte übermittelt.","Payback","1","undefined","5","0","1","60","1080","311","5","1","1436","0","legacy","[11, 21, 31, 41, 51, 61, 71, 81, 91, 101, 111, 121, 131, 141, 151, 161, 171, 181, 191, 201, 211, 221, 231, 241, 251, 261, 271, 281, 291, 301, 311, 321, 331, 341, 351, 361, 371, 381, 391, 401, 411, 421, 431, 441, 451, 461, 471, 481, 491, 501, 511, 521, 531, 541, 551, 561, 571, 581, 591, 601, 611, 621, 631, 641, 651, 661, 671, 681, 691, 701, 711, 721, 731, 741, 751, 761, 771, 781, 791, 801, 811, 821, 831, 841, 851, 861, 871, 881, 891, 901, 911, 921, 931, 941, 951, 961, 971, 981, 991, 1001, 1011, 1021, 1031, 1041, 1051, 1061, 1071, 1081, 1091, 1101, 1111, 1121, 1131, 1141, 1151, 1161, 1171, 1181, 1191, 1201, 1211, 1221, 1231, 1241, 1251, 1261, 1271, 1281, 1291, 1301, 1311, 1321, 1331, 1341, 1351, 1361, 1371, 1381, 1391, 1401, 1411, 1421, 1431]","1104","1920","[960, 960, 960, 960, 960, 960, 960, 960, 960, 960, 960, 960, 960, 960, 960, 960, 960, 960, 960, 960, 961, 964, 969, 973, 975, 983, 986, 989, 992, 1000, 1005, 1008, 1015, 1028, 1035, 1041, 1044, 1054, 1059, 1063, 1068, 1078, 1082, 1088, 1091, 1103, 1108, 1114, 1120, 1134, 1142, 1148, 1158, 1170, 1179, 1187, 1196, 1211, 1219, 1227, 1236, 1251, 1259, 1265, 1272, 1286, 1295, 1305, 1315, 1336, 1347, 1353, 1361, 1376, 1386, 1394, 1402, 1422, 1430, 1443, 1452, 1466, 1474, 1481, 1487, 1496, 1500, 1505, 1511, 1519, 1524, 1530, 1535, 1544, 1550, 1556, 1561, 1572, 1576, 1580, 1583, 1589, 1592, 1594, 1596, 1601, 1604, 1606, 1608, 1609, 1611, 1612, 1613, 1616, 1617, 1617, 1620, 1624, 1624, 1627, 1628, 1629, 1632, 1632, 1634, 1643, 1645, 1648, 1651, 1656, 1657, 1657, 1659, 1659, 1659, 1659, 1659, 1659, 1659, 1659, 1659, 1659, 1659]","[1010, 1010, 1010, 1010, 1010, 1010, 1010, 1010, 1010, 1010, 1010, 1010, 1010, 1010, 1010, 1010, 1010, 1010, 1010, 1009, 1005, 998, 992, 986, 982, 970, 965, 961, 956, 945, 938, 931, 924, 908, 899, 893, 889, 878, 872, 867, 861, 849, 845, 838, 832, 819, 813, 808, 802, 788, 780, 772, 761, 745, 734, 726, 714, 694, 682, 673, 663, 645, 636, 628, 620, 602, 591, 580, 565, 541, 528, 518, 509, 490, 478, 468, 458, 435, 424, 410, 399, 382, 373, 365, 357, 344, 336, 329, 321, 308, 300, 294, 286, 274, 267, 260, 253, 239, 233, 228, 222, 213, 209, 205, 202, 193, 190, 185, 183, 178, 176, 175, 173, 168, 167, 166, 161, 157, 156, 154, 152, 150, 148, 148, 145, 138, 136, 133, 132, 128, 127, 127, 125, 125, 125, 125, 125, 125, 125, 125, 125, 125, 125]"
"Promise","Wie oft werden Sie die Hälfte zurückgeben?","Promise","1","undefined","5","0","2","60","1080","231","5","1","1257","0","legacy","[11, 21, 31, 41, 51, 61, 71, 81, 91, 101, 111, 121, 131, 141, 151, 161, 171, 181, 191, 201, 211, 221, 231, 241, 251, 261, 271, 281, 291, 301, 311, 321, 331, 341, 351, 361, 371, 381, 391, 401, 411, 421, 431, 441, 451, 461, 471, 481, 491, 501, 511, 521, 531, 541, 551, 561, 571, 581, 591, 601, 611, 621, 631, 641, 651, 661, 671, 681, 691, 701, 711, 721, 731, 741, 751, 761, 771, 781, 791, 801, 811, 821, 831, 841, 851, 861, 871, 881, 891, 901, 911, 921, 931, 941, 951, 961, 971, 981, 991, 1001, 1011, 1021, 1031, 1041, 1051, 1061, 1071, 1081, 1091, 1101, 1111, 1121, 1131, 1141, 1151, 1161, 1171, 1181, 1191, 1201, 1211, 1221, 1231, 1241, 1251]","1104","1920","[960, 960, 960, 960, 960, 960, 960, 960, 960, 960, 960, 960, 960, 960, 960, 961, 970, 974, 980, 986, 1003, 1008, 1015, 1022, 1036, 1043, 1049, 1055, 1070, 1077, 1087, 1094, 1109, 1116, 1122, 1128, 1142, 1148, 1155, 1162, 1178, 1186, 1194, 1202, 1217, 1224, 1231, 1240, 1258, 1273, 1287, 1299, 1321, 1333, 1341, 1352, 1371, 1381, 1390, 1401, 1416, 1422, 1428, 1434, 1448, 1454, 1460, 1467, 1486, 1494, 1504, 1507, 1520, 1523, 1529, 1533, 1541, 1546, 1554, 1560, 1573, 1578, 1584, 1588, 1597, 1601, 1604, 1608, 1618, 1623, 1628, 1633, 1640, 1641, 1642, 1645, 1647, 1647, 1647, 1649, 1650, 1651, 1652, 1652, 1652, 1652, 1652, 1652, 1652, 1652, 1652, 1652, 1652, 1652, 1652, 1652, 1652, 1652, 1652, 1652, 1652, 1652, 1652, 1652, 1652]","[1010, 1010, 1010, 1010, 1010, 1010, 1010, 1010, 1010, 1010, 1010, 1010, 1010, 1010, 1009, 1006, 994, 988, 981, 972, 949, 941, 932, 923, 902, 893, 883, 873, 854, 839, 827, 817, 797, 788, 779, 771, 752, 745, 734, 723, 701, 690, 678, 666, 646, 638, 630, 618, 596, 578, 563, 548, 521, 508, 496, 484, 460, 448, 436, 426, 404, 395, 386, 377, 361, 351, 342, 332, 311, 301, 290, 286, 270, 264, 258, 253, 238, 231, 222, 213, 198, 189, 183, 178, 165, 160, 156, 151, 139, 134, 129, 124, 118, 117, 115, 114, 111, 111, 109, 108, 106, 105, 104, 104, 104, 104, 104, 104, 104, 104, 104, 104, 104, 104, 104, 104, 104, 104, 104, 104, 104, 104, 104, 104, 104]"
"Trust","Teilnehmer A hat Ihnen 2 Punkte übermittelt.","Payback","1","undefined","6","0","2","60","1080","311","5","1","1238","0","legacy","[11, 21, 31, 41, 51, 61, 71, 81, 91, 101, 111, 121, 131, 141, 151, 161, 171, 181, 191, 201, 211, 221, 231, 241, 251, 261, 271, 281, 291, 301, 311, 321, 331, 341, 351, 361, 371, 381, 391, 401, 411, 421, 431, 441, 451, 461, 471, 481, 491, 501, 511, 521, 531, 541, 551, 561, 571, 581, 591, 601, 611, 621, 631, 641, 651, 661, 671, 681, 691, 701, 711, 721, 731, 741, 751, 761, 771, 781, 791, 801, 811, 821, 831, 841, 851, 861, 871, 881, 891, 901, 911, 921, 931, 941, 951, 961, 971, 981, 991, 1001, 1011, 1021, 1031, 1041, 1051, 1061, 1071, 1081, 1091, 1101, 1111, 1121, 1131, 1141, 1151, 1161, 1171, 1181, 1191, 1201, 1211, 1221, 1231]","1104","1920","[960, 960, 960, 960, 960, 960, 960, 960, 960, 960, 960, 960, 960, 960, 960, 960, 960, 960, 961, 964, 968, 972, 980, 984, 988, 992, 1002, 1004, 1009, 1013, 1023, 1027, 1032, 1039, 1052, 1059, 1066, 1074, 1087, 1095, 1103, 1113, 1130, 1140, 1151, 1164, 1182, 1192, 1200, 1208, 1218, 1225, 1230, 1236, 1253, 1263, 1275, 1288, 1316, 1326, 1336, 1345, 1360, 1368, 1374, 1381, 1403, 1418, 1434, 1446, 1469, 1482, 1490, 1502, 1522, 1532, 1538, 1545, 1557, 1562, 1570, 1575, 1588, 1592, 1595, 1600, 1608, 1612, 1614, 1618, 1624, 1627, 1629, 1633, 1639, 1642, 1644, 1646, 1651, 1653, 1653, 1654, 1656, 1656, 1659, 1661, 1665, 1666, 1670, 1671, 1673, 1673, 1673, 1673, 1673, 1673, 1673, 1673, 1673, 1673, 1673, 1673, 1673]","[1010, 1010, 1010, 1010, 1010, 1010, 1010, 1010, 1010, 1010, 1010, 1010, 1010, 1010, 1010, 1010, 1010, 1010, 1010, 1008, 1005, 1001, 990, 985, 980, 973, 961, 957, 950, 945, 930, 922, 914, 905, 890, 883, 875, 866, 851, 842, 833, 822, 806, 795, 785, 771, 751, 741, 733, 724, 712, 703, 695, 688, 667, 657, 646, 635, 611, 600, 590, 580, 558, 546, 539, 526, 495, 477, 461, 446, 423, 410, 400, 388, 363, 353, 343, 335, 318, 310, 301, 294, 278, 272, 268, 259, 248, 239, 236, 228, 219, 214, 209, 203, 192, 187, 183, 178, 170, 168, 166, 164, 161, 158, 156, 151, 145, 141, 136, 135, 132, 132, 132, 132, 132, 132, 132, 132, 132, 132, 132, 132, 132]"
"NoTrust","Teilnehmer A hat Ihnen keine 2 Punkte übermittelt.","Payback","1","undefined","7","0","2","60","1080","311","0","1","1238","0","legacy","[11, 21, 31, 41, 51, 61, 71, 81, 91, 101, 111, 121, 131, 141, 151, 161, 171, 181, 191, 201, 211, 221, 231, 241, 251, 261, 271, 281, 291, 301, 311, 321, 331, 341, 351, 361, 371, 381, 391, 401, 411, 421, 431, 441, 451, 461, 471, 481, 491, 501, 511, 521, 531, 541, 551, 561, 571, 581, 591, 601, 611, 621, 631, 641, 651, 661, 671, 681, 691, 701, 711, 721, 731, 741, 751, 761, 771, 781, 791, 801, 811, 821, 831, 841, 851, 861, 871, 881, 891, 901, 911, 921, 931, 941, 951, 961, 971, 981, 991, 1001, 1011, 1021, 1031, 1041, 1051, 1061, 1071, 1081, 1091, 1101, 1111, 1121, 1131, 1141, 1151, 1161, 1171, 1181, 1191, 1201, 1211, 1221, 1231]","1104","1920","[960, 960, 960, 960, 960, 960, 960, 960, 960, 960, 960, 960, 960, 960, 960, 960, 960, 960, 961, 964, 968, 972, 980, 984, 988, 992, 1002, 1004, 1009, 1013, 1023, 1027, 1032, 1039, 1052, 1059, 1066, 1074, 1087, 1095, 1103, 1113, 1130, 1140, 1151, 1164, 1182, 1192, 1200, 1208, 1218, 1225, 1230, 1236, 1253, 1263, 1275, 1288, 1316, 1326, 1336, 1345, 1360, 1368, 1374, 1381, 1403, 1418, 1434, 1446, 1469, 1482, 1490, 1502, 1522, 1532, 1538, 1545, 1557, 1562, 1570, 1575, 1588, 1592, 1595, 1600, 1608, 1612, 1614, 1618, 1624, 1627, 1629, 1633, 1639, 1642, 1644, 1646, 1651, 1653, 1653, 1654, 1656, 1656, 1659, 1661, 1665, 1666, 1670, 1671, 1673, 1673, 1673, 1673, 1673, 1673, 1673, 1673, 1673, 1673, 1673, 1673, 1673]","[1010, 1010, 1010, 1010, 1010, 1010, 1010, 1010, 1010, 1010, 1010, 1010, 1010, 1010, 1010, 1010, 1010, 1010, 1010, 1008, 1005, 1001, 990, 985, 980, 973, 961, 957, 950, 945, 930, 922, 914, 905, 890, 883, 875, 866, 851, 842, 833, 822, 806, 795, 785, 771, 751, 741, 733, 724, 712, 703, 695, 688, 667, 657, 646, 635, 611, 600, 590, 580, 558, 546, 539, 526, 495, 477, 461, 446, 423, 410, 400, 388, 363, 353, 343, 335, 318, 310, 301, 294, 278, 272, 268, 259, 248, 239, 236, 228, 219, 214, 209, 203, 192, 187, 183, 178, 170, 168, 166, 164, 161, 158, 156, 151, 145, 141, 136, 135, 132, 132, 132, 132, 132, 132, 132, 132, 132, 132, 132, 132, 132]"
"Trust","Teilnehmer A hat Ihnen 2 Punkte übermittelt.","Payback","1","undefined","8","0","2","60","1080","321","5","1","1333","0","legacy","[11, 21, 31, 41, 51, 61, 71, 81, 91, 101, 111, 121, 131, 141, 151, 161, 171, 181, 191, 201, 211, 221, 231, 241, 251, 261, 271, 281, 291, 301, 311, 321, 331, 341, 351, 361, 371, 381, 391, 401, 411, 421, 431, 441, 451, 461, 471, 481, 491, 501, 511, 521, 531, 541, 551, 561, 571, 581, 591, 601, 611, 621, 631, 641, 651, 661, 671, 681, 691, 701, 711, 721, 731, 741, 751, 761, 771, 781, 791, 801, 811, 821, 831, 841, 851, 861, 871, 881, 891, 901, 911, 921, 931, 941, 951, 961, 971, 981, 991, 1001, 1011, 1021, 1031, 1041, 1051, 1061, 1071, 1081, 1091, 1101, 1111, 1121, 1131, 1141, 1151, 1161, 1171, 1181, 1191, 1201, 1211, 1221, 1231, 1241, 1251, 1261, 1271, 1281, 1291, 1301, 1311, 1321, 1331]","1104","1920","[960, 960, 960, 960, 960, 960, 960, 960, 960, 960, 960, 960, 960, 960, 960, 960, 960, 960, 960, 960, 961, 962, 965, 967, 970, 973, 976, 979, 979, 983, 992, 999, 1004, 1012, 1027, 1034, 1041, 1049, 1062, 1068, 1075, 1080, 1095, 1102, 1112, 1124, 1131, 1139, 1149, 1167, 1179, 1191, 1199, 1220, 1234, 1250, 1266, 1299, 1312, 1323, 1338, 1360, 1371, 1384, 1395, 1414, 1427, 1437, 1448, 1474, 1486, 1498, 1508, 1523, 1529, 1536, 1542, 1557, 1562, 1564, 1569, 1575, 1579, 1581, 1583, 1591, 1594, 1597, 1600, 1604, 1608, 1609, 1612, 1615, 1615, 1616, 1616, 1617, 1617, 1617, 1617, 1618, 1618, 1620, 1621, 1622, 1622, 1623, 1623, 1626, 1626, 1626, 1627, 1627, 1627, 1627, 1629, 1632, 1633, 1635, 1636, 1639, 1639, 1639, 1639, 1639, 1640, 1640, 1640, 1640, 1640, 1640, 1640]","[1010, 1010, 1010, 1010, 1010, 1010, 1010, 1010, 1010, 1010, 1010, 1010, 1010, 1010, 1010, 1010, 1010, 1010, 1006, 1001, 1001, 997, 989, 985, 981, 976, 971, 967, 964, 958, 943, 931, 923, 911, 889, 881, 869, 859, 837, 827, 816, 804, 783, 771, 759, 740, 727, 717, 703, 678, 665, 651, 640, 614, 598, 583, 562, 526, 509, 496, 478, 451, 439, 426, 411, 388, 375, 362, 350, 319, 305, 290, 279, 259, 250, 241, 233, 217, 209, 205, 197, 189, 184, 180, 177, 170, 166, 162, 157, 152, 148, 146, 143, 139, 138, 137, 136, 135, 135, 135, 135, 134, 133, 131, 131, 130, 129, 129, 129, 127, 127, 126, 126, 126, 126, 125, 124, 122, 121, 121, 120, 119, 118, 118, 118, 118, 118, 118, 118, 118, 118, 118, 118]"
"Promise","Wie oft werden Sie die Hälfte zurückgeben?","Promise","1","undefined","8","0","3","60","1080","301","5","1","1168","0","legacy","[11, 21, 31, 41, 51, 61, 71, 81, 91, 101, 111, 121, 131, 141, 151, 161, 171, 181, 191, 201, 211, 221, 231, 241, 251, 261, 271, 281, 291, 301, 311, 321, 331, 341, 351, 361, 371, 381, 391, 401, 411, 421, 431, 441, 451, 461, 471, 481, 491, 501, 511, 521, 531, 541, 551, 561, 571, 581, 591, 601, 611, 621, 631, 641, 651, 661, 671, 681, 691, 701, 711, 721, 731, 741, 751, 761, 771, 781, 791, 801, 811, 821, 831, 841, 851, 861, 871, 881, 891, 901, 911, 921, 931, 941, 951, 961, 971, 981, 991, 1001, 1011, 1021, 1031, 1041, 1051, 1061, 1071, 1081, 1091, 1101, 1111, 1121, 1131, 1141, 1151, 1161]","1104","1920","[960, 960, 960, 960, 960, 960, 960, 960, 960, 960, 960, 960, 960, 960, 960, 960, 960, 960, 960, 961, 962, 964, 966, 975, 980, 985, 989, 1001, 1013, 1020, 1031, 1051, 1064, 1081, 1091, 1123, 1142, 1160, 1170, 1189, 1197, 1207, 1218, 1242, 1257, 1269, 1282, 1311, 1324, 1335, 1342, 1358, 1370, 1378, 1389, 1404, 1411, 1418, 1426, 1437, 1442, 1448, 1451, 1462, 1469, 1476, 1481, 1493, 1498, 1503, 1509, 1522, 1527, 1536, 1546, 1562, 1568, 1577, 1583, 1599, 1606, 1611, 1617, 1629, 1634, 1639, 1643, 1648, 1648, 1650, 1650, 1653, 1654, 1656, 1657, 1659, 1660, 1661, 1661, 1661, 1661, 1661, 1661, 1661, 1661, 1661, 1661, 1661, 1661, 1661, 1661, 1661, 1661, 1661, 1661, 1661]","[1010, 1010, 1010, 1010, 1010, 1010, 1010, 1010, 1010, 1010, 1010, 1010, 1010, 1010, 1010, 1010, 1010, 1010, 1010, 1008, 1007, 1004, 1002, 994, 989, 984, 978, 959, 943, 933, 919, 897, 883, 865, 853, 826, 807, 792, 782, 758, 749, 735, 722, 695, 677, 662, 645, 609, 594, 582, 572, 548, 534, 525, 513, 494, 485, 475, 465, 445, 436, 427, 417, 397, 388, 379, 372, 357, 349, 342, 333, 314, 306, 294, 284, 266, 257, 248, 241, 220, 213, 204, 196, 180, 174, 167, 161, 154, 154, 151, 149, 145, 143, 140, 139, 136, 135, 134, 134, 134, 134, 134, 134, 134, 134, 134, 134, 134, 134, 134, 134, 134, 134, 134, 134, 134]"
"Trust","Teilnehmer A hat Ihnen 2 Punkte übermittelt.","Payback","1","undefined","9","0","3","60","1080","271","5","1","1117","0","legacy","[11, 21, 31, 41, 51, 61, 71, 81, 91, 101, 111, 121, 131, 141, 151, 161, 171, 181, 191, 201, 211, 221, 231, 241, 251, 261, 271, 281, 291, 301, 311, 321, 331, 341, 351, 361, 371, 381, 391, 401, 411, 421, 431, 441, 451, 461, 471, 481, 491, 501, 511, 521, 531, 541, 551, 561, 571, 581, 591, 601, 611, 621, 631, 641, 651, 661, 671, 681, 691, 701, 711, 721, 731, 741, 751, 761, 771, 781, 791, 801, 811, 821, 831, 841, 851, 861, 871, 881, 891, 901, 911, 921, 931, 941, 951, 961, 971, 981, 991, 1001, 1011, 1021, 1031, 1041, 1051, 1061, 1071, 1081, 1091, 1101, 1111]","1104","1920","[960, 960, 960, 960, 960, 960, 960, 960, 960, 960, 960, 960, 960, 960, 962, 965, 969, 973, 982, 987, 991, 997, 1007, 1011, 1019, 1024, 1041, 1048, 1057, 1072, 1079, 1087, 1094, 1100, 1115, 1123, 1134, 1157, 1167, 1176, 1188, 1202, 1211, 1217, 1222, 1236, 1243, 1252, 1264, 1286, 1294, 1305, 1313, 1328, 1338, 1347, 1353, 1370, 1378, 1387, 1396, 1417, 1428, 1437, 1449, 1465, 1472, 1480, 1488, 1501, 1509, 1517, 1524, 1538, 1547, 1553, 1561, 1576, 1582, 1589, 1596, 1611, 1619, 1627, 1634, 1643, 1646, 1650, 1653, 1660, 1664, 1667, 1670, 1674, 1675, 1676, 1677, 1678, 1678, 1679, 1679, 1679, 1679, 1679, 1679, 1679, 1679, 1679, 1679, 1679, 1679]","[1010, 1010, 1010, 1010, 1010, 1010, 1010, 1010, 1010, 1010, 1010, 1010, 1010, 1010, 1010, 1010, 1008, 1003, 994, 990, 984, 977, 966, 960, 952, 946, 933, 925, 916, 902, 894, 886, 879, 871, 852, 843, 829, 804, 792, 780, 767, 749, 739, 731, 721, 702, 689, 679, 663, 639, 627, 615, 605, 586, 575, 564, 552, 532, 521, 511, 501, 477, 464, 454, 440, 418, 406, 395, 385, 363, 353, 344, 334, 315, 303, 292, 281, 265, 256, 247, 238, 217, 207, 195, 188, 175, 172, 166, 161, 150, 144, 138, 133, 126, 124, 122, 120, 118, 118, 117, 117, 117, 117, 117, 117, 117, 117, 117, 117, 117, 117]"
"Trust","Teilnehmer A hat Ihnen 2 Punkte übermittelt.","Payback","1","undefined","10","0","3","60","1080","251","5","1","1109","0","legacy","[11, 21, 31, 41, 51, 61, 71, 81, 91, 101, 111, 121, 131, 141, 151, 161, 171, 181, 191, 201, 211, 221, 231, 241, 251, 261, 271, 281, 291, 301, 311, 321, 331, 341, 351, 361, 371, 381, 391, 401, 411, 421, 431, 441, 451, 461, 471, 481, 491, 501, 511, 521, 531, 541, 551, 561, 571, 581, 591, 601, 611, 621, 631, 641, 651, 661, 671, 681, 691, 701, 711, 721, 731, 741, 751, 761, 771, 781, 791, 801, 811, 821, 831, 841, 851, 861, 871, 881, 891, 901, 911, 921, 931, 941, 951, 961, 971, 981, 991, 1001, 1011, 1021, 1031, 1041, 1051, 1061, 1071, 1081, 1091, 1101]","1104","1920","[960, 960, 960, 960, 960, 960, 960, 960, 960, 960, 960, 960, 960, 960, 960, 960, 960, 961, 968, 973, 978, 984, 1000, 1009, 1024, 1043, 1082, 1103, 1122, 1142, 1158, 1166, 1173, 1179, 1192, 1198, 1204, 1209, 1220, 1223, 1229, 1235, 1248, 1255, 1260, 1267, 1276, 1282, 1288, 1289, 1305, 1317, 1327, 1340, 1368, 1376, 1386, 1398, 1415, 1425, 1432, 1438, 1451, 1458, 1465, 1472, 1486, 1493, 1498, 1502, 1512, 1520, 1525, 1531, 1544, 1551, 1557, 1562, 1572, 1577, 1582, 1586, 1594, 1599, 1603, 1607, 1614, 1618, 1621, 1623, 1630, 1633, 1635, 1636, 1640, 1641, 1643, 1644, 1646, 1646, 1647, 1647, 1647, 1647, 1647, 1647, 1647, 1647, 1647, 1647]","[1010, 1010, 1010, 1010, 1010, 1010, 1010, 1010, 1010, 1010, 1010, 1010, 1010, 1010, 1010, 1009, 1009, 1007, 998, 992, 986, 978, 961, 951, 937, 916, 871, 846, 820, 794, 767, 751, 740, 729, 707, 697, 687, 678, 659, 652, 642, 632, 613, 603, 595, 586, 574, 565, 557, 554, 535, 519, 505, 492, 468, 458, 448, 437, 421, 411, 402, 394, 377, 366, 357, 347, 331, 324, 318, 313, 303, 295, 290, 283, 266, 260, 252, 247, 236, 230, 225, 220, 208, 201, 195, 190, 179, 175, 171, 166, 156, 153, 149, 147, 140, 140, 137, 136, 133, 132, 131, 131, 131, 131, 131, 131, 131, 131, 131, 131]"
"Trust","Teilnehmer A hat Ihnen 2 Punkte übermittelt.","Payback","1","undefined","11","0","3","60","1080","271","5","1","1077","0","legacy","[11, 21, 31, 41, 51, 61, 71, 81, 91, 101, 111, 121, 131, 141, 151, 161, 171, 181, 191, 201, 211, 221, 231, 241, 251, 261, 271, 281, 291, 301, 311, 321, 331, 341, 351, 361, 371, 381, 391, 401, 411, 421, 431, 441, 451, 461, 471, 481, 491, 501, 511, 521, 531, 541, 551, 561, 571, 581, 591, 601, 611, 621, 631, 641, 651, 661, 671, 681, 691, 701, 711, 721, 731, 741, 751, 761, 771, 781, 791, 801, 811, 821, 831, 841, 851, 861, 871, 881, 891, 901, 911, 921, 931, 941, 951, 961, 971, 981, 991, 1001, 1011, 1021, 1031, 1041, 1051, 1061, 1071]","1104","1920","[960, 960, 960, 960, 960, 960, 960, 960, 960, 960, 960, 960, 960, 960, 960, 960, 960, 960, 965, 970, 975, 980, 994, 1000, 1006, 1014, 1025, 1034, 1044, 1056, 1077, 1088, 1098, 1108, 1121, 1129, 1136, 1143, 1158, 1164, 1172, 1180, 1199, 1206, 1217, 1229, 1247, 1255, 1264, 1271, 1289, 1303, 1314, 1322, 1346, 1360, 1374, 1385, 1407, 1418, 1430, 1439, 1461, 1472, 1483, 1492, 1510, 1518, 1527, 1533, 1549, 1556, 1562, 1569, 1579, 1584, 1591, 1597, 1609, 1616, 1622, 1625, 1632, 1636, 1639, 1642, 1647, 1651, 1653, 1655, 1661, 1662, 1663, 1665, 1669, 1670, 1672, 1672, 1672, 1672, 1672, 1672, 1672, 1672, 1672, 1672, 1672]","[1010, 1010, 1010, 1010, 1010, 1010, 1010, 1010, 1010, 1010, 1010, 1010, 1010, 1010, 1010, 1010, 1010, 1010, 1005, 1001, 996, 991, 976, 970, 961, 951, 934, 923, 910, 895, 870, 856, 842, 830, 808, 798, 788, 777, 757, 746, 734, 724, 700, 690, 678, 665, 643, 633, 624, 612, 588, 568, 556, 544, 518, 504, 489, 476, 453, 441, 426, 416, 389, 376, 362, 352, 334, 325, 316, 308, 290, 282, 274, 267, 255, 248, 243, 237, 223, 215, 209, 204, 194, 189, 186, 181, 173, 168, 164, 162, 154, 152, 149, 144, 139, 135, 134, 134, 134, 134, 134, 134, 134, 134, 134, 134, 134]"
"Promise","Wie oft werden Sie die Hälfte zurückgeben?","Promise","1","undefined","11","0","4","60","1080","251","5","1","1376","0","legacy","[11, 21, 31, 41, 51, 61, 71, 81, 91, 101, 111, 121, 131, 141, 151, 161, 171, 181, 191, 201, 211, 221, 231, 241, 251, 261, 271, 281, 291, 301, 311, 321, 331, 341, 351, 361, 371, 381, 391, 401, 411, 421, 431, 441, 451, 461, 471, 481, 491, 501, 511, 521, 531, 541, 551, 561, 571, 581, 591, 601, 611, 621, 631, 641, 651, 661, 671, 681, 691, 701, 711, 721, 731, 741, 751, 761, 771, 781, 791, 801, 811, 821, 831, 841, 851, 861, 871, 881, 891, 901, 911, 921, 931, 941, 951, 961, 971, 981, 991, 1001, 1011, 1021, 1031, 1041, 1051, 1061, 1071, 1081, 1091, 1101, 1111, 1121, 1131, 1141, 1151, 1161, 1171, 1181, 1191, 1201, 1211, 1221, 1231, 1241, 1251, 1261, 1271, 1281, 1291, 1301, 1311, 1321, 1331, 1341, 1351, 1361, 1371]","1104","1920","[960, 960, 960, 960, 960, 960, 960, 960, 960, 960, 960, 960, 960, 960, 961, 964, 965, 967, 971, 978, 980, 987, 992, 1007, 1017, 1028, 1040, 1061, 1069, 1077, 1083, 1098, 1104, 1110, 1117, 1132, 1138, 1146, 1154, 1171, 1180, 1185, 1190, 1203, 1208, 1211, 1217, 1228, 1232, 1240, 1247, 1259, 1267, 1274, 1281, 1291, 1298, 1303, 1309, 1320, 1326, 1332, 1340, 1352, 1359, 1367, 1375, 1390, 1396, 1402, 1406, 1418, 1424, 1430, 1437, 1454, 1463, 1475, 1482, 1505, 1512, 1520, 1528, 1541, 1546, 1555, 1561, 1575, 1579, 1586, 1593, 1605, 1612, 1617, 1623, 1634, 1640, 1644, 1646, 1657, 1662, 1667, 1669, 1678, 1680, 1683, 1685, 1690, 1692, 1692, 1693, 1693, 1693, 1693, 1693, 1695, 1695, 1695, 1696, 1696, 1696, 1696, 1696, 1696, 1696, 1696, 1696, 1696, 1696, 1696, 1696, 1696, 1696, 1696, 1696, 1696, 1696]","[1010, 1010, 1010, 1010, 1010, 1010, 1010, 1010, 1010, 1010, 1010, 1010, 1010, 1009, 1007, 1004, 1001, 999, 995, 986, 981, 974, 967, 948, 938, 926, 917, 897, 888, 877, 870, 854, 846, 837, 830, 812, 804, 794, 786, 769, 760, 755, 749, 733, 726, 720, 714, 698, 694, 684, 676, 657, 645, 637, 628, 613, 604, 596, 587, 572, 563, 556, 546, 529, 520, 511, 501, 483, 474, 466, 456, 441, 432, 424, 417, 397, 385, 373, 364, 339, 330, 323, 315, 300, 295, 284, 278, 261, 255, 248, 242, 230, 223, 218, 213, 204, 198, 193, 189, 177, 170, 164, 162, 152, 149, 145, 140, 135, 132, 132, 130, 129, 129, 128, 128, 126, 126, 126, 125, 125, 125, 125, 125, 125, 125, 125, 125, 125, 125, 125, 125, 125, 125, 125, 125, 125, 125]"
"Trust","Teilnehmer A hat Ihnen 2 Punkte übermittelt.","Payback","1","undefined","12","0","4","60","1080","311","5","1","1309","0","legacy","[11, 21, 31, 41, 51, 61, 71, 81, 91, 101, 111, 121, 131, 141, 151, 161, 171, 181, 191, 201, 211, 221, 231, 241, 251, 261, 271, 281, 291, 301, 311, 321, 331, 341, 351, 361, 371, 381, 391, 401, 411, 421, 431, 441, 451, 461, 471, 481, 491, 501, 511, 521, 531, 541, 551, 561, 571, 581, 591, 601, 611, 621, 631, 641, 651, 661, 671, 681, 691, 701, 711, 721, 731, 741, 751, 761, 771, 781, 791, 801, 811, 821, 831, 841, 851, 861, 871, 881, 891, 901, 911, 921, 931, 941, 951, 961, 971, 981, 991, 1001, 1011, 1021, 1031, 1041, 1051, 1061, 1071, 1081, 1091, 1101, 1111, 1121, 1131, 1141, 1151, 1161, 1171, 1181, 1191, 1201, 1211, 1221, 1231, 1241, 1251, 1261, 1271, 1281, 1291, 1301]","1104","1920","[960, 960, 960, 960, 960, 960, 960, 960, 960, 960, 960, 960, 960, 960, 960, 960, 960, 960, 960, 960, 960, 961, 967, 973, 980, 990, 1010, 1018, 1031, 1040, 1068, 1077, 1086, 1097, 1110, 1117, 1122, 1127, 1138, 1143, 1149, 1156, 1173, 1183, 1202, 1215, 1242, 1255, 1270, 1282, 1310, 1319, 1330, 1344, 1363, 1378, 1389, 1401, 1419, 1430, 1439, 1459, 1465, 1475, 1482, 1495, 1501, 1506, 1513, 1528, 1535, 1541, 1547, 1562, 1568, 1575, 1582, 1593, 1597, 1604, 1609, 1617, 1623, 1627, 1632, 1642, 1646, 1649, 1654, 1661, 1662, 1663, 1667, 1671, 1674, 1675, 1675, 1675, 1675, 1675, 1676, 1676, 1676, 1677, 1677, 1677, 1678, 1678, 1678, 1678, 1678, 1678, 1678, 1678, 1678, 1678, 1678, 1678, 1678, 1678, 1678, 1678, 1678, 1678, 1678, 1678, 1678, 1678, 1678, 1678]","[1010, 1010, 1010, 1010, 1010, 1010, 1010, 1010, 1010, 1010, 1010, 1010, 1010, 1010, 1010, 1010, 1010, 1010, 1010, 1010, 1010, 1010, 1006, 1002, 998, 989, 977, 970, 963, 955, 935, 927, 917, 904, 885, 877, 867, 858, 839, 830, 819, 807, 780, 768, 747, 730, 697, 684, 666, 651, 616, 602, 590, 570, 545, 527, 514, 499, 479, 466, 456, 433, 421, 411, 401, 384, 377, 369, 364, 345, 337, 328, 320, 302, 294, 286, 279, 265, 259, 250, 244, 230, 224, 215, 209, 194, 189, 184, 177, 168, 167, 163, 158, 152, 148, 147, 147, 146, 146, 146, 146, 144, 144, 143, 143, 143, 141, 141, 141, 141, 141, 141, 141, 141, 141, 141, 141, 141, 141, 141, 141, 141, 141, 141, 141, 141, 141, 141, 141, 141]"
"Trust","Teilnehmer A hat Ihnen 2 Punkte übermittelt.","Payback","1","undefined","13","0","4","60","1080","301","5","1","1159","0","legacy","[11, 21, 31, 41, 51, 61, 71, 81, 91, 101, 111, 121, 131, 141, 151, 161, 171, 181, 191, 201, 211, 221, 231, 241, 251, 261, 271, 281, 291, 301, 311, 321, 331, 341, 351, 361, 371, 381, 391, 401, 411, 421, 431, 441, 451, 461, 471, 481, 491, 501, 511, 521, 531, 541, 551, 561, 571, 581, 591, 601, 611, 621, 631, 641, 651, 661, 671, 681, 691, 701, 711, 721, 731, 741, 751, 761, 771, 781, 791, 801, 811, 821, 831, 841, 851, 861, 871, 881, 891, 901, 911, 921, 931, 941, 951, 961, 971, 981, 991, 1001, 1011, 1021, 1031, 1041, 1051, 1061, 1071, 1081, 1091, 1101, 1111, 1121, 1131, 1141, 1151]","1104","1920","[960, 960, 960, 960, 960, 960, 960, 960, 960, 960, 960, 960, 960, 960, 960, 960, 960, 960, 960, 960, 961, 963, 968, 974, 979, 985, 999, 1006, 1011, 1018, 1031, 1035, 1040, 1046, 1057, 1062, 1070, 1077, 1089, 1095, 1102, 1107, 1113, 1129, 1135, 1145, 1152, 1171, 1181, 1189, 1199, 1212, 1221, 1230, 1238, 1256, 1264, 1269, 1280, 1292, 1298, 1303, 1309, 1320, 1328, 1336, 1347, 1365, 1373, 1380, 1388, 1405, 1414, 1422, 1430, 1452, 1463, 1474, 1490, 1511, 1525, 1536, 1545, 1560, 1567, 1572, 1578, 1588, 1593, 1597, 1601, 1609, 1614, 1617, 1622, 1630, 1632, 1635, 1638, 1643, 1645, 1650, 1654, 1661, 1663, 1664, 1665, 1667, 1667, 1669, 1669, 1669, 1669, 1669, 1669]","[1010, 1010, 1010, 1010, 1010, 1010, 1010, 1010, 1010, 1010, 1010, 1010, 1010, 1010, 1010, 1010, 1010, 1010, 1010, 1010, 1010, 1008, 1000, 993, 986, 980, 963, 954, 945, 938, 924, 916, 909, 900, 881, 872, 861, 852, 833, 825, 814, 805, 795, 775, 763, 751, 741, 716, 703, 692, 678, 659, 649, 638, 626, 599, 589, 579, 568, 554, 546, 539, 532, 514, 504, 495, 483, 461, 450, 441, 434, 414, 404, 393, 382, 358, 345, 335, 321, 302, 291, 282, 273, 255, 248, 242, 234, 222, 216, 212, 207, 196, 190, 185, 180, 170, 167, 164, 160, 155, 150, 145, 141, 133, 131, 127, 126, 124, 123, 122, 122, 122, 122, 122, 122]"
"Trust","Teilnehmer A hat Ihnen 2 Punkte übermittelt.","Payback","1","undefined","14","0","4","60","1080","271","5","1","1135","0","legacy","[11, 21, 31, 41, 51, 61, 71, 81, 91, 101, 111, 121, 131, 141, 151, 161, 171, 181, 191, 201, 211, 221, 231, 241, 251, 261, 271, 281, 291, 301, 311, 321, 331, 341, 351, 361, 371, 381, 391, 401, 411, 421, 431, 441, 451, 461, 471, 481, 491, 501, 511, 521, 531, 541, 551, 561, 571, 581, 591, 601, 611, 621, 631, 641, 651, 661, 671, 681, 691, 701, 711, 721, 731, 741, 751, 761, 771, 781, 791, 801, 811, 821, 831, 841, 851, 861, 871, 881, 891, 901, 911, 921, 931, 941, 951, 961, 971, 981, 991, 1001, 1011, 1021, 1031, 1041, 1051, 1061, 1071, 1081, 1091, 1101, 1111, 1121, 1131]","1104","1920","[960, 960, 960, 960, 960, 960, 960, 960, 960, 960, 960, 960, 960, 960, 960, 960, 960, 960, 960, 964, 966, 973, 978, 995, 1004, 1015, 1035, 1067, 1078, 1086, 1095, 1109, 1117, 1123, 1130, 1141, 1146, 1153, 1161, 1174, 1182, 1191, 1201, 1216, 1226, 1235, 1243, 1260, 1267, 1273, 1282, 1298, 1306, 1315, 1322, 1338, 1348, 1354, 1365, 1382, 1391, 1401, 1410, 1429, 1437, 1443, 1449, 1462, 1469, 1475, 1482, 1495, 1501, 1508, 1514, 1528, 1535, 1541, 1548, 1558, 1565, 1570, 1578, 1591, 1597, 1604, 1609, 1619, 1622, 1626, 1627, 1635, 1636, 1640, 1640, 1644, 1646, 1648, 1651, 1657, 1658, 1660, 1660, 1663, 1663, 1663, 1663, 1663, 1663, 1663, 1663, 1663, 1663]","[1010, 1010, 1010, 1010, 1010, 1010, 1010, 1010, 1010, 1010, 1010, 1010, 1010, 1010, 1010, 1010, 1010, 1010, 1010, 1006, 1003, 996, 991, 973, 964, 950, 935, 905, 892, 881, 871, 850, 839, 830, 821, 806, 797, 788, 778, 762, 751, 741, 729, 704, 690, 676, 666, 641, 630, 618, 607, 584, 572, 562, 550, 529, 515, 506, 494, 475, 464, 453, 441, 420, 410, 402, 395, 376, 368, 357, 348, 330, 321, 312, 306, 292, 283, 275, 268, 254, 246, 239, 230, 213, 207, 201, 194, 182, 177, 172, 169, 161, 159, 155, 152, 148, 145, 143, 138, 130, 128, 126, 125, 122, 122, 122, 122, 122, 122, 122, 122, 122, 122]"
"Promise","Wie oft werden Sie die Hälfte zurückgeben?","Promise","1","undefined","14","0","5","60","1080","251","5","1","1113","0","legacy","[11, 21, 31, 41, 51, 61, 71, 81, 91, 101, 111, 121, 131, 141, 151, 161, 171, 181, 191, 201, 211, 221, 231, 241, 251, 261, 271, 281, 291, 301, 311, 321, 331, 341, 351, 361, 371, 381, 391, 401, 411, 421, 431, 441, 451, 461, 471, 481, 491, 501, 511, 521, 531, 541, 551, 561, 571, 581, 591, 601, 611, 621, 631, 641, 651, 661, 671, 681, 691, 701, 711, 721, 731, 741, 751, 761, 771, 781, 791, 801, 811, 821, 831, 841, 851, 861, 871, 881, 891, 901, 911, 921, 931, 941, 951, 961, 971, 981, 991, 1001, 1011, 1021, 1031, 1041, 1051, 1061, 1071, 1081, 1091, 1101, 1111]","1104","1920","[960, 960, 960, 960, 960, 960, 960, 960, 960, 960, 960, 960, 963, 964, 967, 967, 973, 978, 984, 989, 1001, 1007, 1016, 1025, 1049, 1064, 1077, 1092, 1125, 1137, 1148, 1159, 1182, 1193, 1198, 1206, 1224, 1236, 1251, 1262, 1294, 1309, 1322, 1337, 1365, 1379, 1391, 1400, 1417, 1427, 1434, 1444, 1458, 1464, 1471, 1476, 1488, 1493, 1500, 1504, 1516, 1522, 1527, 1531, 1543, 1547, 1552, 1557, 1567, 1572, 1575, 1579, 1586, 1592, 1593, 1596, 1600, 1601, 1605, 1608, 1614, 1616, 1618, 1622, 1627, 1630, 1631, 1635, 1639, 1640, 1642, 1643, 1645, 1646, 1646, 1647, 1647, 1647, 1647, 1648, 1650, 1651, 1652, 1652, 1653, 1653, 1653, 1653, 1653, 1653, 1653]","[1010, 1010, 1010, 1010, 1010, 1010, 1010, 1010, 1010, 1010, 1010, 1011, 1011, 1010, 1008, 1007, 1003, 999, 994, 991, 979, 971, 962, 953, 926, 908, 895, 875, 834, 813, 791, 775, 741, 724, 714, 701, 669, 652, 632, 617, 579, 561, 544, 526, 493, 480, 465, 453, 432, 423, 413, 403, 385, 379, 372, 365, 350, 342, 333, 326, 311, 304, 298, 291, 277, 272, 263, 258, 244, 238, 232, 227, 218, 213, 211, 208, 201, 199, 195, 191, 184, 180, 177, 173, 167, 164, 162, 159, 154, 153, 150, 149, 146, 145, 145, 143, 142, 141, 141, 139, 137, 136, 134, 134, 133, 133, 133, 133, 133, 133, 133]"
"NoTrust","Teilnehmer A hat Ihnen keine 2 Punkte übermittelt.","Payback","1","undefined","15","0","5","60","1080","251","0","1","1113","0","legacy","[11, 21, 31, 41, 51, 61, 71, 81, 91, 101, 111, 121, 131, 141, 151, 161, 171, 181, 191, 201, 211, 221, 231, 241, 251, 261, 271, 281, 291, 301, 311, 321, 331, 341, 351, 361, 371, 381, 391, 401, 411, 421, 431, 441, 451, 461, 471, 481, 491, 501, 511, 521, 531, 541, 551, 561, 571, 581, 591, 601, 611, 621, 631, 641, 651, 661, 671, 681, 691, 701, 711, 721, 731, 741, 751, 761, 771, 781, 791, 801, 811, 821, 831, 841, 851, 861, 871, 881, 891, 901, 911, 921, 931, 941, 951, 961, 971, 981, 991, 1001, 1011, 1021, 1031, 1041, 1051, 1061, 1071, 1081, 1091, 1101, 1111]","1104","1920","[960, 960, 960, 960, 960, 960, 960, 960, 960, 960, 960, 960, 963, 964, 967, 967, 973, 978, 984, 989, 1001, 1007, 1016, 1025, 1049, 1064, 1077, 1092, 1125, 1137, 1148, 1159, 1182, 1193, 1198, 1206, 1224, 1236, 1251, 1262, 1294, 1309, 1322, 1337, 1365, 1379, 1391, 1400, 1417, 1427, 1434, 1444, 1458, 1464, 1471, 1476, 1488, 1493, 1500, 1504, 1516, 1522, 1527, 1531, 1543, 1547, 1552, 1557, 1567, 1572, 1575, 1579, 1586, 1592, 1593, 1596, 1600, 1601, 1605, 1608, 1614, 1616, 1618, 1622, 1627, 1630, 1631, 1635, 1639, 1640, 1642, 1643, 1645, 1646, 1646, 1647, 1647, 1647, 1647, 1648, 1650, 1651, 1652, 1652, 1653, 1653, 1653, 1653, 1653, 1653, 1653]","[1010, 1010, 1010, 1010, 1010, 1010, 1010, 1010, 1010, 1010, 1010, 1011, 1011, 1010, 1008, 1007, 1003, 999, 994, 991, 979, 971, 962, 953, 926, 908, 895, 875, 834, 813, 791, 775, 741, 724, 714, 701, 669, 652, 632, 617, 579, 561, 544, 526, 493, 480, 465, 453, 432, 423, 413, 403, 385, 379, 372, 365, 350, 342, 333, 326, 311, 304, 298, 291, 277, 272, 263, 258, 244, 238, 232, 227, 218, 213, 211, 208, 201, 199, 195, 191, 184, 180, 177, 173, 167, 164, 162, 159, 154, 153, 150, 149, 146, 145, 145, 143, 142, 141, 141, 139, 137, 136, 134, 134, 133, 133, 133, 133, 133, 133, 133]"
"Trust","Teilnehmer A hat Ihnen 2 Punkte übermittelt.","Payback","1","undefined","16","0","5","60","1080","311","5","1","1238","0","legacy","[11, 21, 31, 41, 51, 61, 71, 81, 91, 101, 111, 121, 131, 141, 151, 161, 171, 181, 191, 201, 211, 221, 231, 241, 251, 261, 271, 281, 291, 301, 311, 321, 331, 341, 351, 361, 371, 381, 391, 401, 411, 421, 431, 441, 451, 461, 471, 481, 491, 501, 511, 521, 531, 541, 551, 561, 571, 581, 591, 601, 611, 621, 631, 641, 651, 661, 671, 681, 691, 701, 711, 721, 731, 741, 751, 761, 771, 781, 791, 801, 811, 821, 831, 841, 851, 861, 871, 881, 891, 901, 911, 921, 931, 941, 951, 961, 971, 981, 991, 1001, 1011, 1021, 1031, 1041, 1051, 1061, 1071, 1081, 1091, 1101, 1111, 1121, 1131, 1141, 1151, 1161, 1171, 1181, 1191, 1201, 1211, 1221, 1231]","1104","1920","[960, 960, 960, 960, 960, 960, 960, 960, 960, 960, 961, 962, 963, 964, 966, 968, 968, 969, 971, 972, 974, 975, 980, 983, 985, 988, 994, 999, 1005, 1009, 1017, 1021, 1026, 1031, 1041, 1047, 1052, 1055, 1065, 1068, 1074, 1077, 1086, 1090, 1094, 1102, 1113, 1121, 1129, 1137, 1150, 1155, 1163, 1169, 1180, 1187, 1195, 1203, 1221, 1229, 1238, 1249, 1268, 1276, 1285, 1294, 1310, 1319, 1324, 1336, 1351, 1359, 1368, 1379, 1400, 1409, 1420, 1426, 1447, 1456, 1462, 1471, 1482, 1489, 1495, 1503, 1520, 1528, 1537, 1543, 1561, 1570, 1576, 1583, 1599, 1605, 1612, 1617, 1631, 1637, 1641, 1646, 1657, 1662, 1665, 1671, 1679, 1686, 1691, 1695, 1701, 1701, 1703, 1704, 1708, 1708, 1711, 1711, 1712, 1712, 1712, 1712, 1712]","[1010, 1010, 1010, 1010, 1010, 1010, 1010, 1010, 1010, 1010, 1011, 1011, 1010, 1010, 1009, 1007, 1006, 1005, 1004, 1002, 1000, 999, 993, 990, 988, 984, 972, 962, 955, 947, 934, 928, 920, 914, 899, 890, 884, 878, 863, 858, 850, 847, 834, 829, 822, 814, 799, 790, 781, 770, 755, 746, 738, 730, 717, 708, 698, 687, 665, 656, 647, 637, 621, 612, 602, 593, 573, 564, 557, 544, 527, 518, 507, 493, 475, 465, 457, 449, 430, 421, 414, 404, 388, 380, 372, 363, 347, 339, 329, 323, 308, 300, 293, 284, 267, 258, 248, 241, 225, 218, 212, 205, 191, 183, 177, 170, 157, 150, 142, 137, 129, 127, 124, 122, 117, 115, 112, 111, 111, 111, 111, 111, 111]"
"Trust","Teilnehmer A hat Ihnen 2 Punkte übermittelt.","Payback","1","undefined","17","0","5","60","1080","291","5","1","1735","0","legacy","[11, 21, 31, 41, 51, 61, 71, 81, 91, 101, 111, 121, 131, 141, 151, 161, 171, 181, 191, 201, 211, 221, 231, 241, 251, 261, 271, 281, 291, 301, 311, 321, 331, 341, 351, 361, 371, 381, 391, 401, 411, 421, 431, 441, 451, 461, 471, 481, 491, 501, 511, 521, 531, 541, 551, 561, 571, 581, 591, 601, 611, 621, 631, 641, 651, 661, 671, 681, 691, 701, 711, 721, 731, 741, 751, 761, 771, 781, 791, 801, 811, 821, 831, 841, 851, 861, 871, 881, 891, 901, 911, 921, 931, 941, 951, 961, 971, 981, 991, 1001, 1011, 1021, 1031, 1041, 1051, 1061, 1071, 1081, 1091, 1101, 1111, 1121, 1131, 1141, 1151, 1161, 1171, 1181, 1191, 1201, 1211, 1221, 1231, 1241, 1251, 1261, 1271, 1281, 1291, 1301, 1311, 1321, 1331, 1341, 1351, 1361, 1371, 1381, 1391, 1401, 1411, 1421, 1431, 1441, 1451, 1461, 1471, 1481, 1491, 1501, 1511, 1521, 1531, 1541, 1551, 1561, 1571, 1581, 1591, 1601, 1611, 1621, 1631, 1641, 1651, 1661, 1671, 1681, 1691, 1701, 1711, 1721, 1731]","1104","1920","[960, 960, 960, 960, 960, 960, 960, 960, 960, 960, 960, 960, 960, 960, 960, 960, 962, 964, 966, 972, 974, 978, 981, 987, 991, 996, 1000, 1009, 1016, 1019, 1023, 1032, 1034, 1038, 1043, 1052, 1058, 1064, 1068, 1084, 1093, 1104, 1113, 1129, 1135, 1144, 1154, 1168, 1177, 1185, 1191, 1207, 1214, 1224, 1232, 1249, 1259, 1265, 1273, 1287, 1293, 1299, 1306, 1319, 1323, 1329, 1335, 1345, 1351, 1357, 1362, 1375, 1381, 1386, 1394, 1403, 1412, 1420, 1428, 1443, 1451, 1458, 1466, 1480, 1486, 1494, 1501, 1515, 1522, 1528, 1534, 1545, 1549, 1553, 1559, 1570, 1578, 1584, 1590, 1599, 1604, 1606, 1610, 1615, 1618, 1619, 1619, 1623, 1625, 1627, 1627, 1629, 1630, 1631, 1632, 1633, 1633, 1633, 1633, 1633, 1633, 1633, 1633, 1633, 1633, 1633, 1633, 1633, 1633, 1633, 1633, 1633, 1633, 1633, 1633, 1633, 1633, 1633, 1633, 1633, 1633, 1633, 1633, 1633, 1633, 1633, 1633, 1633, 1633, 1633, 1633, 1633, 1633, 1633, 1633, 1633, 1633, 1633, 1633, 1633, 1634, 1636, 1638, 1641, 1644, 1645, 1645, 1645, 1645, 1645, 1646, 1646, 1646]","[1010, 1010, 1010, 1010, 1010, 1010, 1010, 1010, 1010, 1010, 1010, 1010, 1010, 1010, 1010, 1010, 1010, 1007, 1004, 996, 994, 988, 985, 975, 971, 963, 958, 943, 937, 931, 925, 910, 905, 898, 890, 874, 865, 855, 848, 826, 814, 800, 786, 762, 752, 741, 728, 707, 696, 684, 673, 649, 636, 624, 612, 593, 581, 572, 561, 542, 533, 523, 513, 494, 488, 479, 471, 456, 449, 441, 433, 418, 411, 404, 396, 384, 374, 366, 357, 342, 335, 330, 322, 312, 305, 299, 290, 277, 269, 262, 257, 245, 240, 237, 230, 219, 211, 204, 197, 186, 181, 176, 172, 164, 160, 158, 156, 152, 149, 146, 144, 142, 141, 140, 138, 138, 138, 138, 138, 138, 138, 138, 138, 138, 138, 138, 138, 138, 138, 138, 138, 138, 138, 138, 138, 138, 138, 138, 138, 138, 138, 138, 138, 138, 138, 138, 138, 138, 138, 138, 138, 138, 138, 138, 138, 138, 138, 138, 138, 137, 137, 137, 137, 137, 136, 135, 135, 135, 135, 135, 135, 135, 135]"
"Promise","Wie oft werden Sie die Hälfte zurückgeben?","Promise","1","undefined","17","0","6","60","1080","251","5","1","1097","0","legacy","[11, 21, 31, 41, 51, 61, 71, 81, 91, 101, 111, 121, 131, 141, 151, 161, 171, 181, 191, 201, 211, 221, 231, 241, 251, 261, 271, 281, 291, 301, 311, 321, 331, 341, 351, 361, 371, 381, 391, 401, 411, 421, 431, 441, 451, 461, 471, 481, 491, 501, 511, 521, 531, 541, 551, 561, 571, 581, 591, 601, 611, 621, 631, 641, 651, 661, 671, 681, 691, 701, 711, 721, 731, 741, 751, 761, 771, 781, 791, 801, 811, 821, 831, 841, 851, 861, 871, 881, 891, 901, 911, 921, 931, 941, 951, 961, 971, 981, 991, 1001, 1011, 1021, 1031, 1041, 1051, 1061, 1071, 1081, 1091]","1104","1920","[960, 960, 960, 960, 960, 960, 960, 960, 960, 960, 960, 959, 959, 959, 960, 964, 970, 975, 979, 983, 993, 999, 1005, 1010, 1026, 1036, 1045, 1052, 1069, 1075, 1082, 1090, 1103, 1111, 1125, 1133, 1153, 1162, 1174, 1185, 1205, 1215, 1224, 1232, 1249, 1257, 1265, 1275, 1288, 1299, 1306, 1316, 1334, 1342, 1353, 1364, 1391, 1406, 1423, 1436, 1470, 1484, 1496, 1508, 1527, 1535, 1543, 1555, 1573, 1581, 1589, 1598, 1611, 1621, 1628, 1632, 1640, 1644, 1648, 1650, 1658, 1662, 1664, 1666, 1670, 1672, 1673, 1673, 1673, 1673, 1673, 1673, 1673, 1673, 1673, 1673, 1673, 1673, 1673, 1673, 1673, 1673, 1673, 1673, 1673, 1673, 1673, 1673, 1673]","[1010, 1010, 1010, 1010, 1010, 1010, 1010, 1010, 1010, 1010, 1010, 1009, 1006, 1004, 1001, 997, 989, 982, 977, 974, 962, 956, 950, 942, 925, 912, 903, 893, 872, 865, 854, 845, 826, 815, 799, 789, 764, 754, 740, 728, 705, 692, 681, 670, 645, 633, 623, 610, 589, 577, 568, 555, 528, 516, 502, 483, 451, 431, 412, 395, 356, 341, 326, 311, 288, 279, 268, 254, 232, 223, 214, 205, 190, 179, 172, 166, 155, 151, 146, 141, 133, 129, 124, 122, 115, 112, 112, 112, 111, 111, 111, 111, 111, 111, 111, 111, 111, 111, 111, 111, 111, 111, 111, 111, 111, 111, 111, 111, 111]"
"Trust","Teilnehmer A hat Ihnen 2 Punkte übermittelt.","Payback","1","undefined","18","0","6","60","1080","311","5","1","1429","0","legacy","[11, 21, 31, 41, 51, 61, 71, 81, 91, 101, 111, 121, 131, 141, 151, 161, 171, 181, 191, 201, 211, 221, 231, 241, 251, 261, 271, 281, 291, 301, 311, 321, 331, 341, 351, 361, 371, 381, 391, 401, 411, 421, 431, 441, 451, 461, 471, 481, 491, 501, 511, 521, 531, 541, 551, 561, 571, 581, 591, 601, 611, 621, 631, 641, 651, 661, 671, 681, 691, 701, 711, 721, 731, 741, 751, 761, 771, 781, 791, 801, 811, 821, 831, 841, 851, 861, 871, 881, 891, 901, 911, 921, 931, 941, 951, 961, 971, 981, 991, 1001, 1011, 1021, 1031, 1041, 1051, 1061, 1071, 1081, 1091, 1101, 1111, 1121, 1131, 1141, 1151, 1161, 1171, 1181, 1191, 1201, 1211, 1221, 1231, 1241, 1251, 1261, 1271, 1281, 1291, 1301, 1311, 1321, 1331, 1341, 1351, 1361, 1371, 1381, 1391, 1401, 1411, 1421]","1104","1920","[960, 960, 960, 960, 960, 960, 960, 960, 960, 960, 960, 960, 960, 960, 960, 961, 962, 964, 967, 971, 972, 974, 981, 984, 988, 992, 1000, 1005, 1010, 1017, 1029, 1036, 1042, 1047, 1058, 1063, 1068, 1073, 1084, 1088, 1093, 1099, 1111, 1120, 1127, 1135, 1154, 1164, 1173, 1182, 1196, 1206, 1214, 1224, 1245, 1258, 1267, 1279, 1296, 1304, 1311, 1318, 1335, 1343, 1353, 1363, 1395, 1409, 1423, 1437, 1451, 1457, 1463, 1470, 1483, 1490, 1499, 1507, 1522, 1531, 1539, 1547, 1559, 1564, 1568, 1573, 1580, 1584, 1590, 1594, 1601, 1605, 1609, 1610, 1618, 1619, 1623, 1625, 1629, 1631, 1633, 1634, 1638, 1640, 1643, 1643, 1647, 1650, 1650, 1652, 1654, 1654, 1655, 1657, 1658, 1658, 1660, 1661, 1662, 1662, 1664, 1664, 1665, 1666, 1666, 1668, 1668, 1668, 1668, 1668, 1668, 1668, 1668, 1669, 1669, 1669, 1669, 1669, 1670, 1670, 1670, 1670]","[1010, 1010, 1010, 1010, 1010, 1010, 1010, 1010, 1010, 1010, 1010, 1010, 1010, 1010, 1010, 1009, 1008, 1006, 1003, 999, 997, 994, 987, 984, 981, 976, 970, 964, 959, 952, 939, 933, 925, 920, 908, 903, 895, 889, 878, 872, 863, 855, 839, 827, 818, 809, 789, 777, 768, 759, 742, 730, 720, 708, 683, 669, 657, 642, 621, 611, 603, 594, 574, 562, 549, 534, 496, 481, 465, 452, 432, 424, 415, 408, 390, 382, 372, 363, 340, 328, 319, 310, 295, 289, 283, 276, 264, 259, 252, 246, 236, 231, 226, 223, 215, 212, 207, 204, 198, 196, 193, 192, 186, 184, 180, 179, 174, 170, 169, 167, 164, 162, 160, 159, 157, 154, 152, 151, 150, 147, 146, 146, 143, 142, 142, 139, 139, 138, 137, 137, 137, 137, 137, 135, 135, 135, 134, 134, 132, 132, 132, 132]"
"Trust","Teilnehmer A hat Ihnen 2 Punkte übermittelt.","Payback","1","undefined","19","0","6","60","1080","251","5","1","1094","0","legacy","[11, 21, 31, 41, 51, 61, 71, 81, 91, 101, 111, 121, 131, 141, 151, 161, 171, 181, 191, 201, 211, 221, 231, 241, 251, 261, 271, 281, 291, 301, 311, 321, 331, 341, 351, 361, 371, 381, 391, 401, 411, 421, 431, 441, 451, 461, 471, 481, 491, 501, 511, 521, 531, 541, 551, 561, 571, 581, 591, 601, 611, 621, 631, 641, 651, 661, 671, 681, 691, 701, 711, 721, 731, 741, 751, 761, 771, 781, 791, 801, 811, 821, 831, 841, 851, 861, 871, 881, 891, 901, 911, 921, 931, 941, 951, 961, 971, 981, 991, 1001, 1011, 1021, 1031, 1041, 1051, 1061, 1071, 1081, 1091]","1104","1920","[960, 960, 960, 960, 960, 960, 960, 960, 960, 960, 960, 960, 960, 960, 963, 963, 966, 972, 980, 985, 991, 997, 1010, 1017, 1022, 1029, 1044, 1052, 1059, 1067, 1079, 1084, 1091, 1095, 1107, 1111, 1116, 1122, 1134, 1142, 1149, 1154, 1165, 1170, 1174, 1178, 1192, 1198, 1205, 1215, 1231, 1240, 1248, 1258, 1279, 1288, 1297, 1305, 1327, 1335, 1344, 1350, 1367, 1374, 1380, 1386, 1401, 1407, 1414, 1423, 1438, 1445, 1452, 1459, 1478, 1487, 1495, 1504, 1521, 1528, 1537, 1546, 1560, 1569, 1578, 1588, 1606, 1612, 1620, 1625, 1634, 1635, 1637, 1639, 1644, 1646, 1648, 1651, 1653, 1653, 1655, 1655, 1656, 1656, 1656, 1656, 1656, 1656, 1656]","[1010, 1010, 1010, 1010, 1010, 1010, 1010, 1010, 1010, 1010, 1010, 1010, 1010, 1010, 1010, 1010, 1006, 1001, 989, 980, 972, 962, 948, 941, 930, 920, 897, 887, 875, 865, 849, 841, 834, 827, 810, 804, 795, 786, 770, 762, 754, 748, 732, 727, 719, 713, 694, 684, 671, 659, 640, 629, 618, 606, 577, 565, 555, 545, 520, 510, 500, 492, 472, 461, 453, 444, 423, 414, 404, 394, 377, 367, 360, 352, 328, 317, 306, 296, 271, 260, 250, 241, 223, 214, 206, 196, 178, 172, 164, 158, 148, 145, 143, 141, 136, 133, 130, 128, 124, 124, 122, 122, 120, 120, 120, 120, 120, 120, 120]"
"Trust","Teilnehmer A hat Ihnen 2 Punkte übermittelt.","Payback","1","undefined","20","0","6","60","1080","231","5","1","1015","0","legacy","[11, 21, 31, 41, 51, 61, 71, 81, 91, 101, 111, 121, 131, 141, 151, 161, 171, 181, 191, 201, 211, 221, 231, 241, 251, 261, 271, 281, 291, 301, 311, 321, 331, 341, 351, 361, 371, 381, 391, 401, 411, 421, 431, 441, 451, 461, 471, 481, 491, 501, 511, 521, 531, 541, 551, 561, 571, 581, 591, 601, 611, 621, 631, 641, 651, 661, 671, 681, 691, 701, 711, 721, 731, 741, 751, 761, 771, 781, 791, 801, 811, 821, 831, 841, 851, 861, 871, 881, 891, 901, 911, 921, 931, 941, 951, 961, 971, 981, 991, 1001, 1011]","1104","1920","[960, 960, 960, 960, 960, 960, 960, 960, 960, 960, 960, 962, 962, 964, 966, 974, 978, 984, 991, 1008, 1017, 1025, 1032, 1046, 1052, 1058, 1063, 1074, 1078, 1084, 1088, 1100, 1105, 1112, 1118, 1127, 1131, 1138, 1145, 1163, 1179, 1193, 1204, 1226, 1236, 1249, 1263, 1276, 1283, 1291, 1299, 1316, 1324, 1337, 1346, 1365, 1377, 1387, 1397, 1416, 1425, 1433, 1443, 1458, 1466, 1473, 1482, 1499, 1505, 1510, 1517, 1530, 1535, 1543, 1552, 1571, 1580, 1589, 1596, 1610, 1617, 1621, 1626, 1637, 1641, 1645, 1650, 1658, 1661, 1665, 1667, 1669, 1670, 1672, 1672, 1672, 1672, 1672, 1672, 1672, 1672]","[1010, 1010, 1010, 1010, 1010, 1010, 1010, 1010, 1010, 1010, 1010, 1010, 1010, 1008, 1005, 996, 991, 984, 976, 958, 949, 940, 930, 913, 904, 898, 888, 872, 862, 853, 844, 824, 815, 805, 794, 779, 770, 759, 746, 722, 702, 686, 674, 647, 636, 624, 608, 589, 578, 569, 557, 536, 525, 513, 503, 483, 471, 459, 449, 427, 417, 408, 396, 378, 370, 361, 352, 335, 329, 323, 315, 301, 293, 284, 275, 253, 241, 230, 223, 205, 199, 192, 184, 169, 161, 154, 148, 133, 127, 123, 120, 116, 114, 112, 112, 112, 112, 112, 112, 112, 112]"
"Promise","Wie oft werden Sie die Hälfte zurückgeben?","Promise","1","undefined","20","0","7","60","1080","251","5","1","1152","0","legacy","[11, 21, 31, 41, 51, 61, 71, 81, 91, 101, 111, 121, 131, 141, 151, 161, 171, 181, 191, 201, 211, 221, 231, 241, 251, 261, 271, 281, 291, 301, 311, 321, 331, 341, 351, 361, 371, 381, 391, 401, 411, 421, 431, 441, 451, 461, 471, 481, 491, 501, 511, 521, 531, 541, 551, 561, 571, 581, 591, 601, 611, 621, 631, 641, 651, 661, 671, 681, 691, 701, 711, 721, 731, 741, 751, 761, 771, 781, 791, 801, 811, 821, 831, 841, 851, 861, 871, 881, 891, 901, 911, 921, 931, 941, 951, 961, 971, 981, 991, 1001, 1011, 1021, 1031, 1041, 1051, 1061, 1071, 1081, 1091, 1101, 1111, 1121, 1131, 1141, 1151]","1104","1920","[960, 960, 960, 960, 960, 960, 960, 960, 960, 960, 960, 966, 969, 973, 977, 986, 992, 994, 999, 1006, 1010, 1015, 1021, 1032, 1040, 1047, 1055, 1069, 1076, 1081, 1088, 1104, 1113, 1122, 1131, 1151, 1158, 1166, 1174, 1190, 1196, 1206, 1212, 1223, 1231, 1241, 1252, 1270, 1278, 1287, 1293, 1307, 1317, 1325, 1335, 1351, 1359, 1364, 1371, 1384, 1389, 1397, 1403, 1418, 1428, 1435, 1443, 1456, 1463, 1470, 1474, 1486, 1492, 1499, 1507, 1524, 1532, 1539, 1547, 1555, 1559, 1563, 1568, 1577, 1583, 1588, 1592, 1603, 1607, 1612, 1617, 1625, 1628, 1631, 1633, 1636, 1636, 1637, 1638, 1638, 1640, 1641, 1641, 1642, 1642, 1642, 1642, 1642, 1642, 1642, 1642, 1642, 1642, 1642, 1642]","[1010, 1010, 1010, 1010, 1010, 1010, 1010, 1010, 1010, 1010, 1010, 1005, 1002, 1000, 997, 993, 989, 987, 983, 975, 969, 964, 957, 943, 934, 925, 915, 898, 890, 883, 875, 856, 846, 835, 823, 802, 793, 783, 774, 756, 747, 733, 723, 702, 692, 680, 667, 643, 633, 621, 611, 587, 572, 561, 549, 529, 517, 509, 499, 480, 472, 458, 447, 418, 404, 393, 382, 365, 356, 347, 338, 318, 308, 298, 284, 265, 255, 247, 238, 227, 221, 216, 209, 196, 189, 181, 174, 162, 158, 152, 149, 140, 136, 133, 130, 125, 125, 124, 123, 120, 118, 118, 116, 115, 115, 115, 115, 115, 115, 115, 115, 115, 115, 115, 115]"
"Trust","Teilnehmer A hat Ihnen 2 Punkte übermittelt.","Payback","1","undefined","21","0","7","60","1080","241","5","1","1173","0","legacy","[11, 21, 31, 41, 51, 61, 71, 81, 91, 101, 111, 121, 131, 141, 151, 161, 171, 181, 191, 201, 211, 221, 231, 241, 251, 261, 271, 281, 291, 301, 311, 321, 331, 341, 351, 361, 371, 381, 391, 401, 411, 421, 431, 441, 451, 461, 471, 481, 491, 501, 511, 521, 531, 541, 551, 561, 571, 581, 591, 601, 611, 621, 631, 641, 651, 661, 671, 681, 691, 701, 711, 721, 731, 741, 751, 761, 771, 781, 791, 801, 811, 821, 831, 841, 851, 861, 871, 881, 891, 901, 911, 921, 931, 941, 951, 961, 971, 981, 991, 1001, 1011, 1021, 1031, 1041, 1051, 1061, 1071, 1081, 1091, 1101, 1111, 1121, 1131, 1141, 1151, 1161, 1171]","1104","1920","[960, 960, 960, 960, 960, 960, 960, 960, 960, 960, 960, 959, 959, 959, 963, 966, 968, 972, 980, 985, 992, 999, 1016, 1025, 1035, 1044, 1060, 1068, 1074, 1081, 1094, 1099, 1104, 1111, 1125, 1133, 1139, 1147, 1164, 1169, 1174, 1179, 1191, 1198, 1205, 1213, 1230, 1237, 1244, 1254, 1271, 1282, 1290, 1297, 1311, 1317, 1325, 1332, 1349, 1355, 1365, 1372, 1386, 1392, 1399, 1406, 1415, 1422, 1431, 1439, 1454, 1462, 1471, 1480, 1496, 1504, 1509, 1516, 1529, 1541, 1553, 1561, 1582, 1593, 1601, 1609, 1623, 1628, 1635, 1638, 1646, 1648, 1650, 1652, 1658, 1662, 1665, 1667, 1671, 1673, 1673, 1674, 1676, 1676, 1678, 1678, 1680, 1680, 1680, 1681, 1681, 1681, 1681, 1681, 1681, 1681, 1681]","[1010, 1010, 1010, 1010, 1010, 1010, 1010, 1010, 1010, 1010, 1010, 1010, 1010, 1009, 1004, 1004, 1001, 998, 984, 975, 968, 959, 942, 933, 924, 914, 894, 885, 878, 869, 855, 847, 841, 832, 816, 808, 802, 795, 778, 773, 768, 762, 747, 739, 733, 725, 707, 699, 692, 684, 667, 655, 647, 638, 622, 614, 605, 598, 578, 568, 558, 548, 530, 521, 513, 504, 491, 482, 470, 459, 438, 429, 417, 407, 388, 379, 374, 365, 345, 329, 314, 301, 274, 262, 252, 244, 230, 223, 215, 209, 195, 192, 187, 184, 173, 167, 163, 160, 152, 150, 148, 147, 143, 142, 139, 139, 136, 136, 136, 134, 134, 134, 134, 134, 134, 134, 134]"
"Trust","Teilnehmer A hat Ihnen 2 Punkte übermittelt.","Payback","1","undefined","22","0","7","60","1080","271","5","1","1076","0","legacy","[11, 21, 31, 41, 51, 61, 71, 81, 91, 101, 111, 121, 131, 141, 151, 161, 171, 181, 191, 201, 211, 221, 231, 241, 251, 261, 271, 281, 291, 301, 311, 321, 331, 341, 351, 361, 371, 381, 391, 401, 411, 421, 431, 441, 451, 461, 471, 481, 491, 501, 511, 521, 531, 541, 551, 561, 571, 581, 591, 601, 611, 621, 631, 641, 651, 661, 671, 681, 691, 701, 711, 721, 731, 741, 751, 761, 771, 781, 791, 801, 811, 821, 831, 841, 851, 861, 871, 881, 891, 901, 911, 921, 931, 941, 951, 961, 971, 981, 991, 1001, 1011, 1021, 1031, 1041, 1051, 1061, 1071]","1104","1920","[960, 960, 960, 960, 960, 960, 960, 960, 960, 960, 960, 960, 961, 965, 967, 969, 970, 975, 978, 980, 982, 987, 993, 1000, 1007, 1022, 1030, 1038, 1046, 1060, 1066, 1074, 1079, 1094, 1102, 1109, 1117, 1136, 1146, 1153, 1160, 1176, 1188, 1197, 1206, 1227, 1235, 1246, 1255, 1271, 1281, 1288, 1300, 1320, 1330, 1338, 1348, 1374, 1387, 1401, 1418, 1444, 1458, 1467, 1476, 1492, 1499, 1507, 1514, 1529, 1536, 1545, 1556, 1571, 1578, 1585, 1593, 1608, 1616, 1621, 1629, 1640, 1646, 1651, 1655, 1667, 1673, 1675, 1681, 1687, 1691, 1692, 1695, 1698, 1699, 1700, 1703, 1705, 1707, 1708, 1708, 1708, 1708, 1708, 1708, 1708, 1708]","[1010, 1010, 1010, 1010, 1010, 1010, 1010, 1010, 1010, 1010, 1010, 1010, 1010, 1009, 1007, 1006, 1004, 998, 995, 993, 990, 982, 975, 968, 961, 944, 934, 924, 916, 897, 890, 880, 871, 851, 840, 831, 819, 800, 789, 783, 777, 757, 743, 733, 721, 696, 686, 677, 668, 651, 641, 633, 619, 593, 580, 569, 557, 529, 512, 496, 478, 448, 432, 422, 410, 391, 383, 374, 365, 349, 342, 333, 323, 306, 296, 287, 276, 255, 245, 236, 229, 215, 207, 200, 194, 177, 170, 165, 157, 149, 144, 140, 137, 131, 130, 128, 123, 119, 118, 117, 117, 117, 117, 117, 117, 117, 117]"
"Trust","Teilnehmer A hat Ihnen 2 Punkte übermittelt.","Payback","1","undefined","23","0","7","60","1080","271","5","1","965","0","legacy","[11, 21, 31, 41, 51, 61, 71, 81, 91, 101, 111, 121, 131, 141, 151, 161, 171, 181, 191, 201, 211, 221, 231, 241, 251, 261, 271, 281, 291, 301, 311, 321, 331, 341, 351, 361, 371, 381, 391, 401, 411, 421, 431, 441, 451, 461, 471, 481, 491, 501, 511, 521, 531, 541, 551, 561, 571, 581, 591, 601, 611, 621, 631, 641, 651, 661, 671, 681, 691, 701, 711, 721, 731, 741, 751, 761, 771, 781, 791, 801, 811, 821, 831, 841, 851, 861, 871, 881, 891, 901, 911, 921, 931, 941, 951, 961]","1104","1920","[960, 960, 960, 960, 960, 960, 960, 960, 960, 960, 960, 960, 960, 960, 960, 960, 960, 960, 963, 968, 973, 977, 993, 997, 1006, 1015, 1045, 1064, 1083, 1099, 1137, 1149, 1159, 1168, 1183, 1190, 1198, 1205, 1223, 1235, 1247, 1262, 1284, 1298, 1311, 1326, 1357, 1370, 1381, 1398, 1418, 1426, 1436, 1442, 1457, 1465, 1472, 1481, 1499, 1506, 1512, 1518, 1529, 1538, 1546, 1551, 1561, 1567, 1572, 1578, 1588, 1596, 1601, 1606, 1620, 1628, 1635, 1641, 1651, 1660, 1662, 1667, 1675, 1678, 1682, 1684, 1690, 1691, 1693, 1694, 1696, 1697, 1697, 1697, 1697, 1697]","[1010, 1010, 1010, 1010, 1010, 1010, 1010, 1010, 1010, 1010, 1010, 1010, 1010, 1010, 1010, 1010, 1010, 1010, 1007, 1002, 997, 992, 974, 967, 958, 948, 914, 893, 874, 856, 816, 804, 793, 783, 764, 754, 742, 729, 699, 684, 667, 652, 625, 609, 592, 574, 534, 517, 504, 486, 458, 446, 436, 426, 404, 394, 383, 370, 349, 339, 332, 323, 307, 298, 287, 280, 265, 256, 250, 245, 232, 223, 218, 211, 195, 184, 177, 170, 156, 146, 142, 135, 123, 120, 115, 110, 103, 102, 99, 96, 94, 92, 92, 92, 92, 92]"
CHF,TotCHF,final_payoff,sum
"10","30","[5, 5, 5, 5]","20"
