Condition,PromiseStage,Stage,accuracy,avg_rt,count_decision_sequence,count_loop1,count_trial_sequence,font_size,height,init_time,payoff,response,rt,subject_nr,synth_backend,tTrajectory,time_experiment,width,xTrajectory,yTrajectory
"Promise","Wie oft werden Sie die Hälfte zurückgeben?","Promise","1","undefined","NA","0","0","60","1080","661","NA","1","1366","0","legacy","[11, 21, 31, 41, 51, 61, 71, 81, 91, 101, 111, 121, 131, 141, 151, 161, 171, 181, 191, 201, 211, 221, 231, 241, 251, 261, 271, 281, 291, 301, 311, 321, 331, 341, 351, 361, 371, 381, 391, 401, 411, 421, 431, 441, 451, 461, 471, 481, 491, 501, 511, 521, 531, 541, 551, 561, 571, 581, 591, 601, 611, 621, 631, 641, 651, 661, 671, 681, 691, 701, 711, 721, 731, 741, 751, 761, 771, 781, 791, 801, 811, 821, 831, 841, 851, 861, 871, 881, 891, 901, 911, 921, 931, 941, 951, 961, 971, 981, 991, 1001, 1011, 1021, 1031, 1041, 1051, 1061, 1071, 1081, 1091, 1101, 1111, 1121, 1131, 1141, 1151, 1161, 1171, 1181, 1191, 1201, 1211, 1221, 1231, 1241, 1251, 1261, 1271, 1281, 1291, 1301, 1311, 1321, 1331, 1341, 1351, 1361]","1076","1920","[960, 960, 960, 960, 960, 960, 960, 960, 960, 960, 960, 960, 960, 960, 960, 960, 960, 960, 960, 960, 960, 960, 960, 960, 960, 960, 960, 960, 960, 960, 960, 960, 960, 960, 960, 960, 960, 960, 960, 960, 960, 960, 960, 960, 960, 960, 960, 960, 960, 960, 960, 960, 960, 960, 960, 960, 960, 960, 960, 960, 960, 960, 967, 976, 985, 1001, 1037, 1064, 1091, 1120, 1178, 1208, 1233, 1261, 1321, 1348, 1378, 1407, 1471, 1505, 1530, 1559, 1610, 1638, 1655, 1682, 1729, 1745, 1763, 1780, 1811, 1821, 1832, 1840, 1850, 1856, 1858, 1859, 1860, 1860, 1860, 1860, 1860, 1860, 1860, 1860, 1860, 1860, 1859, 1858, 1858, 1858, 1857, 1857, 1857, 1855, 1854, 1852, 1848, 1843, 1841, 1838, 1836, 1835, 1835, 1835, 1833, 1833, 1833, 1833, 1833, 1833, 1833, 1833, 1833, 1833]","[1010, 1010, 1010, 1010, 1010, 1010, 1010, 1010, 1010, 1010, 1010, 1010, 1010, 1010, 1010, 1010, 1010, 1010, 1010, 1010, 1010, 1010, 1010, 1010, 1010, 1010, 1010, 1010, 1010, 1010, 1010, 1010, 1010, 1010, 1010, 1010, 1010, 1010, 1010, 1010, 1010, 1010, 1010, 1010, 1010, 1010, 1010, 1010, 1010, 1010, 1010, 1010, 1010, 1010, 1010, 1010, 1010, 1010, 1010, 1009, 1002, 993, 975, 960, 944, 921, 875, 841, 799, 763, 682, 640, 599, 555, 473, 434, 393, 353, 272, 232, 193, 156, 98, 64, 39, 10, 0, 0, 0, 0, 0, 0, 0, 0, 0, 0, 0, 0, 0, 0, 0, 0, 0, 0, 0, 1, 5, 7, 11, 13, 16, 18, 19, 19, 20, 23, 24, 26, 30, 34, 36, 38, 40, 41, 43, 43, 45, 45, 45, 45, 45, 45, 45, 45, 45, 45]"
Cond,DecisionB,Stage,accuracy,avg_rt,count_decision_sequence,count_loop1,count_trial_sequence,font_size,height,init_time,payoff,response,rt,subject_nr,synth_backend,tTrajectory,time_experiment,width,xTrajectory,yTrajectory
"Trust","Teilnehmer A hat Ihnen 2 Punkte übermittelt.","Payback","1","undefined","0","0","0","60","1080","481","5","1","2294","0","legacy","[11, 21, 31, 41, 51, 61, 71, 81, 91, 101, 111, 121, 131, 141, 151, 161, 171, 181, 191, 201, 211, 221, 231, 241, 251, 261, 271, 281, 291, 301, 311, 321, 331, 341, 351, 361, 371, 381, 391, 401, 411, 421, 431, 441, 451, 461, 471, 481, 491, 501, 511, 521, 531, 541, 551, 561, 571, 581, 591, 601, 611, 621, 631, 641, 651, 661, 671, 681, 691, 701, 711, 721, 731, 741, 751, 761, 771, 781, 791, 801, 811, 821, 831, 841, 851, 861, 871, 881, 891, 901, 911, 921, 931, 941, 951, 961, 971, 981, 991, 1001, 1011, 1021, 1031, 1041, 1051, 1061, 1071, 1081, 1091, 1101, 1111, 1121, 1131, 1141, 1151, 1161, 1171, 1181, 1191, 1201, 1211, 1221, 1231, 1241, 1251, 1261, 1271, 1281, 1291, 1301, 1311, 1321, 1331, 1341, 1351, 1361, 1371, 1381, 1391, 1401, 1411, 1421, 1431, 1441, 1451, 1461, 1471, 1481, 1491, 1501, 1511, 1521, 1531, 1541, 1551, 1561, 1571, 1581, 1591, 1601, 1611, 1621, 1631, 1641, 1651, 1661, 1671, 1681, 1691, 1701, 1711, 1721, 1731, 1741, 1751, 1761, 1771, 1781, 1791, 1801, 1811, 1821, 1831, 1841, 1851, 1861, 1871, 1881, 1891, 1901, 1911, 1921, 1931, 1941, 1951, 1961, 1971, 1981, 1991, 2001, 2011, 2021, 2031, 2041, 2051, 2061, 2071, 2081, 2091, 2101, 2111, 2121, 2131, 2141, 2151, 2161, 2171, 2181, 2191, 2201, 2211, 2221, 2231, 2241, 2251, 2261, 2271, 2281, 2291]","1076","1920","[960, 960, 960, 960, 960, 960, 960, 960, 960, 960, 960, 960, 960, 960, 960, 960, 960, 960, 960, 960, 959, 956, 954, 954, 954, 954, 954, 954, 954, 954, 954, 954, 954, 954, 954, 954, 954, 954, 954, 955, 958, 961, 970, 974, 976, 980, 989, 993, 1000, 1008, 1027, 1039, 1047, 1058, 1086, 1104, 1124, 1142, 1185, 1207, 1225, 1241, 1255, 1257, 1257, 1257, 1255, 1254, 1253, 1253, 1253, 1253, 1253, 1253, 1253, 1253, 1253, 1253, 1253, 1253, 1253, 1253, 1253, 1253, 1253, 1253, 1253, 1253, 1253, 1253, 1253, 1253, 1253, 1253, 1253, 1253, 1253, 1253, 1253, 1253, 1253, 1253, 1254, 1254, 1254, 1254, 1254, 1254, 1254, 1254, 1254, 1254, 1254, 1254, 1254, 1254, 1254, 1253, 1253, 1253, 1253, 1253, 1253, 1253, 1253, 1253, 1253, 1253, 1253, 1253, 1253, 1253, 1253, 1253, 1252, 1252, 1252, 1252, 1252, 1252, 1252, 1252, 1252, 1253, 1253, 1254, 1255, 1257, 1258, 1258, 1260, 1261, 1262, 1263, 1264, 1264, 1264, 1265, 1265, 1266, 1267, 1267, 1272, 1275, 1281, 1289, 1305, 1316, 1328, 1340, 1370, 1387, 1407, 1430, 1474, 1500, 1519, 1539, 1567, 1585, 1595, 1605, 1624, 1631, 1637, 1645, 1654, 1662, 1664, 1672, 1681, 1686, 1688, 1691, 1693, 1694, 1694, 1695, 1697, 1697, 1700, 1701, 1703, 1704, 1705, 1706, 1707, 1707, 1707, 1708, 1710, 1712, 1713, 1716, 1718, 1719, 1721, 1722, 1723, 1725, 1726, 1726, 1726, 1726, 1726, 1726, 1726, 1726, 1726]","[1010, 1010, 1010, 1010, 1010, 1010, 1010, 1010, 1010, 1010, 1010, 1010, 1010, 1010, 1010, 1010, 1010, 1010, 1010, 1011, 1014, 1016, 1018, 1018, 1018, 1018, 1018, 1018, 1018, 1018, 1018, 1018, 1018, 1018, 1018, 1018, 1018, 1018, 1018, 1016, 1008, 1001, 985, 976, 969, 962, 946, 938, 929, 918, 897, 882, 872, 859, 826, 806, 782, 759, 707, 686, 667, 653, 634, 630, 627, 626, 623, 623, 623, 623, 623, 623, 623, 623, 623, 623, 623, 623, 623, 623, 623, 623, 623, 623, 623, 623, 623, 623, 623, 623, 623, 623, 623, 623, 623, 623, 623, 623, 623, 623, 623, 623, 623, 623, 623, 623, 623, 623, 623, 623, 623, 623, 623, 623, 623, 623, 623, 623, 623, 623, 623, 623, 623, 623, 623, 623, 623, 623, 623, 623, 623, 623, 623, 623, 622, 622, 622, 622, 621, 620, 620, 620, 618, 617, 615, 615, 611, 609, 608, 606, 603, 603, 601, 600, 600, 598, 598, 598, 597, 597, 596, 595, 591, 589, 585, 580, 568, 561, 551, 543, 521, 510, 494, 474, 437, 414, 398, 382, 357, 342, 333, 322, 301, 292, 284, 272, 253, 242, 231, 216, 195, 187, 182, 176, 171, 168, 165, 162, 155, 149, 144, 139, 130, 125, 122, 120, 116, 115, 113, 111, 104, 99, 93, 87, 79, 76, 70, 66, 60, 57, 56, 55, 55, 55, 55, 55, 55, 55, 55]"
"NoTrust","Teilnehmer A hat Ihnen keine 2 Punkte übermittelt.","Payback","1","undefined","1","0","0","60","1080","481","0","1","2294","0","legacy","[11, 21, 31, 41, 51, 61, 71, 81, 91, 101, 111, 121, 131, 141, 151, 161, 171, 181, 191, 201, 211, 221, 231, 241, 251, 261, 271, 281, 291, 301, 311, 321, 331, 341, 351, 361, 371, 381, 391, 401, 411, 421, 431, 441, 451, 461, 471, 481, 491, 501, 511, 521, 531, 541, 551, 561, 571, 581, 591, 601, 611, 621, 631, 641, 651, 661, 671, 681, 691, 701, 711, 721, 731, 741, 751, 761, 771, 781, 791, 801, 811, 821, 831, 841, 851, 861, 871, 881, 891, 901, 911, 921, 931, 941, 951, 961, 971, 981, 991, 1001, 1011, 1021, 1031, 1041, 1051, 1061, 1071, 1081, 1091, 1101, 1111, 1121, 1131, 1141, 1151, 1161, 1171, 1181, 1191, 1201, 1211, 1221, 1231, 1241, 1251, 1261, 1271, 1281, 1291, 1301, 1311, 1321, 1331, 1341, 1351, 1361, 1371, 1381, 1391, 1401, 1411, 1421, 1431, 1441, 1451, 1461, 1471, 1481, 1491, 1501, 1511, 1521, 1531, 1541, 1551, 1561, 1571, 1581, 1591, 1601, 1611, 1621, 1631, 1641, 1651, 1661, 1671, 1681, 1691, 1701, 1711, 1721, 1731, 1741, 1751, 1761, 1771, 1781, 1791, 1801, 1811, 1821, 1831, 1841, 1851, 1861, 1871, 1881, 1891, 1901, 1911, 1921, 1931, 1941, 1951, 1961, 1971, 1981, 1991, 2001, 2011, 2021, 2031, 2041, 2051, 2061, 2071, 2081, 2091, 2101, 2111, 2121, 2131, 2141, 2151, 2161, 2171, 2181, 2191, 2201, 2211, 2221, 2231, 2241, 2251, 2261, 2271, 2281, 2291]","1076","1920","[960, 960, 960, 960, 960, 960, 960, 960, 960, 960, 960, 960, 960, 960, 960, 960, 960, 960, 960, 960, 959, 956, 954, 954, 954, 954, 954, 954, 954, 954, 954, 954, 954, 954, 954, 954, 954, 954, 954, 955, 958, 961, 970, 974, 976, 980, 989, 993, 1000, 1008, 1027, 1039, 1047, 1058, 1086, 1104, 1124, 1142, 1185, 1207, 1225, 1241, 1255, 1257, 1257, 1257, 1255, 1254, 1253, 1253, 1253, 1253, 1253, 1253, 1253, 1253, 1253, 1253, 1253, 1253, 1253, 1253, 1253, 1253, 1253, 1253, 1253, 1253, 1253, 1253, 1253, 1253, 1253, 1253, 1253, 1253, 1253, 1253, 1253, 1253, 1253, 1253, 1254, 1254, 1254, 1254, 1254, 1254, 1254, 1254, 1254, 1254, 1254, 1254, 1254, 1254, 1254, 1253, 1253, 1253, 1253, 1253, 1253, 1253, 1253, 1253, 1253, 1253, 1253, 1253, 1253, 1253, 1253, 1253, 1252, 1252, 1252, 1252, 1252, 1252, 1252, 1252, 1252, 1253, 1253, 1254, 1255, 1257, 1258, 1258, 1260, 1261, 1262, 1263, 1264, 1264, 1264, 1265, 1265, 1266, 1267, 1267, 1272, 1275, 1281, 1289, 1305, 1316, 1328, 1340, 1370, 1387, 1407, 1430, 1474, 1500, 1519, 1539, 1567, 1585, 1595, 1605, 1624, 1631, 1637, 1645, 1654, 1662, 1664, 1672, 1681, 1686, 1688, 1691, 1693, 1694, 1694, 1695, 1697, 1697, 1700, 1701, 1703, 1704, 1705, 1706, 1707, 1707, 1707, 1708, 1710, 1712, 1713, 1716, 1718, 1719, 1721, 1722, 1723, 1725, 1726, 1726, 1726, 1726, 1726, 1726, 1726, 1726, 1726]","[1010, 1010, 1010, 1010, 1010, 1010, 1010, 1010, 1010, 1010, 1010, 1010, 1010, 1010, 1010, 1010, 1010, 1010, 1010, 1011, 1014, 1016, 1018, 1018, 1018, 1018, 1018, 1018, 1018, 1018, 1018, 1018, 1018, 1018, 1018, 1018, 1018, 1018, 1018, 1016, 1008, 1001, 985, 976, 969, 962, 946, 938, 929, 918, 897, 882, 872, 859, 826, 806, 782, 759, 707, 686, 667, 653, 634, 630, 627, 626, 623, 623, 623, 623, 623, 623, 623, 623, 623, 623, 623, 623, 623, 623, 623, 623, 623, 623, 623, 623, 623, 623, 623, 623, 623, 623, 623, 623, 623, 623, 623, 623, 623, 623, 623, 623, 623, 623, 623, 623, 623, 623, 623, 623, 623, 623, 623, 623, 623, 623, 623, 623, 623, 623, 623, 623, 623, 623, 623, 623, 623, 623, 623, 623, 623, 623, 623, 623, 622, 622, 622, 622, 621, 620, 620, 620, 618, 617, 615, 615, 611, 609, 608, 606, 603, 603, 601, 600, 600, 598, 598, 598, 597, 597, 596, 595, 591, 589, 585, 580, 568, 561, 551, 543, 521, 510, 494, 474, 437, 414, 398, 382, 357, 342, 333, 322, 301, 292, 284, 272, 253, 242, 231, 216, 195, 187, 182, 176, 171, 168, 165, 162, 155, 149, 144, 139, 130, 125, 122, 120, 116, 115, 113, 111, 104, 99, 93, 87, 79, 76, 70, 66, 60, 57, 56, 55, 55, 55, 55, 55, 55, 55, 55]"
"Trust","Teilnehmer A hat Ihnen 2 Punkte übermittelt.","Payback","1","undefined","2","0","0","60","1080","371","5","1","1102","0","legacy","[11, 21, 31, 41, 51, 61, 71, 81, 91, 101, 111, 121, 131, 141, 151, 161, 171, 181, 191, 201, 211, 221, 231, 241, 251, 261, 271, 281, 291, 301, 311, 321, 331, 341, 351, 361, 371, 381, 391, 401, 411, 421, 431, 441, 451, 461, 471, 481, 491, 501, 511, 521, 531, 541, 551, 561, 571, 581, 591, 601, 611, 621, 631, 641, 651, 661, 671, 681, 691, 701, 711, 721, 731, 741, 751, 761, 771, 781, 791, 801, 811, 821, 831, 841, 851, 861, 871, 881, 891, 901, 911, 921, 931, 941, 951, 961, 971, 981, 991, 1001, 1011, 1021, 1031, 1041, 1051, 1061, 1071, 1081, 1091, 1101]","1076","1920","[960, 960, 960, 960, 960, 960, 960, 960, 960, 960, 960, 960, 960, 960, 960, 960, 960, 961, 961, 961, 961, 961, 961, 961, 961, 961, 963, 964, 964, 965, 969, 971, 976, 982, 995, 1004, 1012, 1025, 1062, 1083, 1112, 1140, 1202, 1237, 1274, 1306, 1387, 1425, 1467, 1509, 1587, 1626, 1658, 1692, 1751, 1778, 1796, 1813, 1838, 1850, 1861, 1870, 1878, 1882, 1884, 1886, 1886, 1887, 1887, 1887, 1887, 1887, 1887, 1887, 1887, 1887, 1887, 1887, 1887, 1887, 1887, 1887, 1883, 1879, 1873, 1872, 1859, 1850, 1844, 1838, 1829, 1827, 1825, 1823, 1820, 1820, 1818, 1817, 1816, 1816, 1816, 1816, 1816, 1816, 1816, 1816, 1816, 1816, 1816, 1816]","[1010, 1010, 1010, 1010, 1010, 1010, 1010, 1010, 1010, 1010, 1010, 1010, 1010, 1010, 1010, 1009, 1006, 1006, 1004, 1004, 1003, 1002, 1001, 1000, 1000, 998, 996, 994, 993, 989, 983, 979, 973, 967, 953, 945, 937, 926, 890, 869, 841, 812, 748, 713, 670, 630, 534, 486, 438, 387, 297, 256, 214, 174, 93, 57, 21, 0, 0, 0, 0, 0, 0, 0, 0, 0, 0, 0, 0, 0, 0, 0, 0, 0, 0, 0, 0, 0, 0, 0, 0, 0, 1, 5, 9, 10, 20, 26, 31, 36, 45, 47, 50, 52, 56, 56, 58, 60, 61, 62, 62, 62, 62, 62, 62, 62, 62, 62, 62, 62]"
"Promise","Wie oft werden Sie die Hälfte zurückgeben?","Promise","1","undefined","2","0","1","60","1080","541","5","1","1841","0","legacy","[11, 21, 31, 41, 51, 61, 71, 81, 91, 101, 111, 121, 131, 141, 151, 161, 171, 181, 191, 201, 211, 221, 231, 241, 251, 261, 271, 281, 291, 301, 311, 321, 331, 341, 351, 361, 371, 381, 391, 401, 411, 421, 431, 441, 451, 461, 471, 481, 491, 501, 511, 521, 531, 541, 551, 561, 571, 581, 591, 601, 611, 621, 631, 641, 651, 661, 671, 681, 691, 701, 711, 721, 731, 741, 751, 761, 771, 781, 791, 801, 811, 821, 831, 841, 851, 861, 871, 881, 891, 901, 911, 921, 931, 941, 951, 961, 971, 981, 991, 1001, 1011, 1021, 1031, 1041, 1051, 1061, 1071, 1081, 1091, 1101, 1111, 1121, 1131, 1141, 1151, 1161, 1171, 1181, 1191, 1201, 1211, 1221, 1231, 1241, 1251, 1261, 1271, 1281, 1291, 1301, 1311, 1321, 1331, 1341, 1351, 1361, 1371, 1381, 1391, 1401, 1411, 1421, 1431, 1441, 1451, 1461, 1471, 1481, 1491, 1501, 1511, 1521, 1531, 1541, 1551, 1561, 1571, 1581, 1591, 1601, 1611, 1621, 1631, 1641, 1651, 1661, 1671, 1681, 1691, 1701, 1711, 1721, 1731, 1741, 1751, 1761, 1771, 1781, 1791, 1801, 1811, 1821, 1831, 1841]","1076","1920","[960, 960, 960, 960, 960, 960, 960, 960, 960, 960, 960, 960, 960, 960, 960, 960, 960, 960, 960, 960, 960, 960, 960, 960, 960, 960, 960, 960, 960, 960, 960, 960, 960, 960, 960, 960, 960, 960, 960, 960, 960, 960, 960, 960, 960, 960, 960, 960, 960, 960, 960, 960, 996, 1036, 1076, 1114, 1181, 1213, 1237, 1269, 1308, 1325, 1344, 1357, 1382, 1394, 1409, 1420, 1439, 1445, 1450, 1453, 1459, 1462, 1464, 1467, 1473, 1475, 1476, 1477, 1478, 1478, 1479, 1479, 1485, 1487, 1492, 1499, 1520, 1533, 1552, 1574, 1635, 1669, 1694, 1714, 1772, 1793, 1808, 1824, 1843, 1850, 1854, 1855, 1857, 1858, 1858, 1858, 1859, 1859, 1859, 1859, 1859, 1859, 1859, 1859, 1859, 1859, 1859, 1859, 1859, 1859, 1859, 1859, 1852, 1847, 1840, 1833, 1819, 1815, 1813, 1811, 1811, 1811, 1811, 1811, 1811, 1811, 1811, 1811, 1811, 1811, 1811, 1811, 1811, 1811, 1811, 1811, 1811, 1811, 1811, 1811, 1811, 1811, 1811, 1811, 1811, 1811, 1811, 1811, 1811, 1811, 1811, 1811, 1811, 1811, 1811, 1811, 1811, 1811, 1811, 1811, 1811, 1811, 1811, 1811, 1811, 1811, 1811, 1811, 1811, 1811, 1811, 1811]","[1010, 1010, 1010, 1010, 1010, 1010, 1010, 1010, 1010, 1010, 1010, 1010, 1010, 1010, 1010, 1010, 1010, 1010, 1010, 1010, 1010, 1010, 1010, 1010, 1010, 1009, 1009, 1009, 1009, 1009, 1009, 1009, 1009, 1009, 1009, 1009, 1009, 1009, 1009, 1009, 1009, 1009, 1009, 1009, 1009, 1009, 1009, 1009, 1009, 1009, 1009, 1009, 972, 925, 874, 821, 714, 662, 610, 558, 470, 427, 389, 355, 300, 278, 253, 232, 200, 185, 177, 168, 152, 147, 141, 138, 127, 122, 121, 119, 116, 115, 115, 115, 112, 112, 112, 112, 112, 112, 112, 112, 112, 112, 112, 112, 104, 101, 100, 95, 90, 87, 84, 83, 80, 78, 78, 76, 75, 75, 75, 73, 72, 72, 72, 72, 72, 72, 72, 72, 72, 72, 72, 72, 71, 71, 71, 71, 71, 71, 71, 71, 71, 71, 71, 71, 71, 71, 71, 71, 71, 71, 71, 71, 71, 71, 71, 71, 71, 71, 71, 71, 71, 71, 71, 71, 71, 71, 71, 71, 71, 71, 71, 71, 71, 71, 71, 71, 71, 71, 71, 71, 71, 71, 71, 71, 71, 71, 71, 71, 71, 71, 71, 71]"
"Trust","Teilnehmer A hat Ihnen 2 Punkte übermittelt.","Payback","1","undefined","3","0","1","60","1080","301","5","1","1678","0","legacy","[11, 21, 31, 41, 51, 61, 71, 81, 91, 101, 111, 121, 131, 141, 151, 161, 171, 181, 191, 201, 211, 221, 231, 241, 251, 261, 271, 281, 291, 301, 311, 321, 331, 341, 351, 361, 371, 381, 391, 401, 411, 421, 431, 441, 451, 461, 471, 481, 491, 501, 511, 521, 531, 541, 551, 561, 571, 581, 591, 601, 611, 621, 631, 641, 651, 661, 671, 681, 691, 701, 711, 721, 731, 741, 751, 761, 771, 781, 791, 801, 811, 821, 831, 841, 851, 861, 871, 881, 891, 901, 911, 921, 931, 941, 951, 961, 971, 981, 991, 1001, 1011, 1021, 1031, 1041, 1051, 1061, 1071, 1081, 1091, 1101, 1111, 1121, 1131, 1141, 1151, 1161, 1171, 1181, 1191, 1201, 1211, 1221, 1231, 1241, 1251, 1261, 1271, 1281, 1291, 1301, 1311, 1321, 1331, 1341, 1351, 1361, 1371, 1381, 1391, 1401, 1411, 1421, 1431, 1441, 1451, 1461, 1471, 1481, 1491, 1501, 1511, 1521, 1531, 1541, 1551, 1561, 1571, 1581, 1591, 1601, 1611, 1621, 1631, 1641, 1651, 1661, 1671]","1076","1920","[960, 960, 960, 960, 960, 960, 960, 960, 960, 960, 960, 960, 960, 960, 960, 960, 960, 960, 960, 962, 964, 969, 975, 979, 984, 990, 1004, 1012, 1020, 1027, 1040, 1046, 1051, 1056, 1061, 1064, 1065, 1065, 1066, 1066, 1066, 1066, 1070, 1071, 1075, 1080, 1095, 1101, 1112, 1125, 1159, 1179, 1197, 1215, 1257, 1281, 1307, 1333, 1383, 1410, 1439, 1462, 1499, 1513, 1524, 1535, 1546, 1550, 1552, 1553, 1553, 1553, 1556, 1559, 1563, 1563, 1563, 1565, 1565, 1565, 1565, 1566, 1571, 1574, 1577, 1582, 1593, 1600, 1610, 1622, 1644, 1660, 1673, 1687, 1711, 1721, 1728, 1733, 1744, 1748, 1752, 1754, 1758, 1760, 1762, 1764, 1769, 1774, 1779, 1784, 1790, 1793, 1794, 1795, 1797, 1797, 1797, 1797, 1797, 1797, 1797, 1797, 1797, 1797, 1797, 1797, 1797, 1797, 1797, 1797, 1797, 1797, 1797, 1797, 1796, 1796, 1795, 1792, 1790, 1787, 1787, 1786, 1785, 1783, 1783, 1783, 1783, 1783, 1783, 1783, 1783, 1783, 1783, 1783, 1783, 1783, 1783, 1783, 1783, 1783, 1783, 1783, 1783, 1783, 1783, 1783, 1783]","[1010, 1010, 1010, 1010, 1010, 1010, 1010, 1010, 1010, 1010, 1010, 1010, 1010, 1010, 1010, 1010, 1010, 1010, 1010, 1008, 1005, 1001, 996, 992, 987, 980, 965, 957, 947, 937, 917, 908, 899, 889, 877, 869, 864, 860, 855, 852, 850, 848, 841, 836, 832, 826, 809, 802, 792, 780, 751, 736, 719, 702, 664, 642, 619, 598, 549, 525, 501, 483, 455, 446, 438, 429, 417, 414, 411, 411, 411, 410, 407, 402, 397, 395, 394, 390, 386, 382, 378, 371, 351, 343, 333, 324, 298, 285, 269, 254, 220, 197, 180, 160, 126, 114, 103, 91, 74, 67, 58, 53, 44, 39, 35, 31, 20, 14, 5, 0, 0, 0, 0, 0, 0, 0, 0, 0, 0, 0, 0, 0, 0, 0, 0, 0, 0, 0, 0, 0, 0, 0, 0, 0, 8, 11, 16, 22, 34, 41, 45, 50, 58, 62, 63, 65, 66, 67, 67, 67, 67, 67, 67, 67, 67, 67, 67, 67, 67, 67, 67, 67, 67, 67, 67, 67, 67]"
"Trust","Teilnehmer A hat Ihnen 2 Punkte übermittelt.","Payback","1","undefined","4","0","1","60","1080","461","5","1","1238","0","legacy","[11, 21, 31, 41, 51, 61, 71, 81, 91, 101, 111, 121, 131, 141, 151, 161, 171, 181, 191, 201, 211, 221, 231, 241, 251, 261, 271, 281, 291, 301, 311, 321, 331, 341, 351, 361, 371, 381, 391, 401, 411, 421, 431, 441, 451, 461, 471, 481, 491, 501, 511, 521, 531, 541, 551, 561, 571, 581, 591, 601, 611, 621, 631, 641, 651, 661, 671, 681, 691, 701, 711, 721, 731, 741, 751, 761, 771, 781, 791, 801, 811, 821, 831, 841, 851, 861, 871, 881, 891, 901, 911, 921, 931, 941, 951, 961, 971, 981, 991, 1001, 1011, 1021, 1031, 1041, 1051, 1061, 1071, 1081, 1091, 1101, 1111, 1121, 1131, 1141, 1151, 1161, 1171, 1181, 1191, 1201, 1211, 1221, 1231]","1076","1920","[960, 960, 960, 960, 960, 960, 960, 960, 960, 960, 960, 960, 960, 960, 960, 960, 960, 960, 960, 960, 960, 960, 960, 960, 960, 960, 960, 960, 960, 960, 960, 960, 960, 960, 960, 960, 960, 960, 960, 960, 960, 961, 962, 962, 962, 962, 962, 962, 968, 977, 1013, 1037, 1071, 1117, 1200, 1241, 1281, 1318, 1390, 1419, 1447, 1467, 1502, 1515, 1524, 1536, 1559, 1574, 1588, 1603, 1638, 1656, 1675, 1691, 1716, 1734, 1746, 1759, 1776, 1783, 1788, 1792, 1797, 1798, 1800, 1800, 1800, 1800, 1800, 1800, 1800, 1800, 1800, 1800, 1800, 1800, 1800, 1800, 1799, 1797, 1795, 1792, 1787, 1785, 1782, 1782, 1780, 1780, 1779, 1779, 1779, 1779, 1779, 1779, 1779, 1779, 1779, 1779, 1779, 1779, 1779, 1779, 1779]","[1010, 1010, 1010, 1010, 1010, 1010, 1010, 1010, 1010, 1010, 1010, 1010, 1010, 1010, 1010, 1010, 1010, 1010, 1010, 1010, 1010, 1010, 1010, 1010, 1010, 1010, 1010, 1010, 1010, 1010, 1010, 1010, 1010, 1010, 1010, 1010, 1010, 1010, 1010, 1007, 1003, 995, 974, 959, 944, 926, 886, 867, 845, 827, 771, 740, 698, 656, 579, 541, 505, 471, 407, 380, 350, 327, 286, 269, 257, 242, 216, 199, 183, 165, 129, 112, 93, 78, 53, 38, 29, 16, 0, 0, 0, 0, 0, 0, 0, 0, 0, 0, 0, 0, 0, 0, 0, 0, 0, 0, 0, 0, 0, 1, 4, 11, 19, 22, 27, 31, 36, 38, 40, 40, 42, 42, 42, 42, 42, 42, 42, 42, 42, 42, 42, 42, 42]"
"Trust","Teilnehmer A hat Ihnen 2 Punkte übermittelt.","Payback","1","undefined","5","0","1","60","1080","491","5","1","1238","0","legacy","[11, 21, 31, 41, 51, 61, 71, 81, 91, 101, 111, 121, 131, 141, 151, 161, 171, 181, 191, 201, 211, 221, 231, 241, 251, 261, 271, 281, 291, 301, 311, 321, 331, 341, 351, 361, 371, 381, 391, 401, 411, 421, 431, 441, 451, 461, 471, 481, 491, 501, 511, 521, 531, 541, 551, 561, 571, 581, 591, 601, 611, 621, 631, 641, 651, 661, 671, 681, 691, 701, 711, 721, 731, 741, 751, 761, 771, 781, 791, 801, 811, 821, 831, 841, 851, 861, 871, 881, 891, 901, 911, 921, 931, 941, 951, 961, 971, 981, 991, 1001, 1011, 1021, 1031, 1041, 1051, 1061, 1071, 1081, 1091, 1101, 1111, 1121, 1131, 1141, 1151, 1161, 1171, 1181, 1191, 1201, 1211, 1221, 1231]","1076","1920","[960, 960, 960, 960, 960, 960, 960, 960, 960, 960, 960, 960, 960, 960, 960, 960, 960, 960, 960, 960, 960, 960, 960, 960, 960, 960, 960, 960, 960, 960, 959, 959, 959, 959, 958, 958, 958, 958, 958, 958, 958, 958, 964, 968, 972, 975, 986, 995, 1008, 1024, 1059, 1082, 1103, 1126, 1165, 1185, 1197, 1211, 1239, 1256, 1274, 1289, 1322, 1337, 1349, 1364, 1385, 1401, 1415, 1430, 1462, 1476, 1494, 1512, 1544, 1558, 1572, 1584, 1607, 1614, 1622, 1627, 1640, 1645, 1650, 1655, 1661, 1663, 1663, 1664, 1665, 1665, 1667, 1668, 1671, 1675, 1680, 1682, 1690, 1693, 1697, 1699, 1712, 1717, 1725, 1729, 1740, 1746, 1749, 1751, 1754, 1755, 1755, 1755, 1755, 1755, 1755, 1755, 1755, 1755, 1755, 1755, 1755]","[1010, 1010, 1010, 1010, 1010, 1010, 1010, 1010, 1010, 1010, 1010, 1010, 1010, 1010, 1010, 1010, 1010, 1010, 1010, 1010, 1010, 1010, 1010, 1010, 1010, 1010, 1010, 1010, 1010, 1009, 1008, 1008, 1008, 1008, 1008, 1008, 1008, 1008, 1007, 1007, 1004, 1001, 992, 987, 981, 974, 956, 943, 930, 914, 886, 868, 849, 831, 804, 790, 779, 770, 746, 733, 719, 706, 676, 664, 654, 636, 607, 585, 565, 545, 502, 482, 459, 436, 394, 372, 349, 328, 287, 270, 251, 239, 209, 199, 187, 177, 163, 158, 157, 154, 150, 150, 148, 147, 143, 140, 136, 134, 127, 124, 120, 118, 107, 102, 96, 88, 76, 68, 63, 60, 56, 55, 55, 55, 55, 55, 55, 55, 55, 55, 55, 55, 55]"
"Promise","Wie oft werden Sie die Hälfte zurückgeben?","Promise","1","undefined","5","0","2","60","1080","441","5","1","1072","0","legacy","[11, 21, 31, 41, 51, 61, 71, 81, 91, 101, 111, 121, 131, 141, 151, 161, 171, 181, 191, 201, 211, 221, 231, 241, 251, 261, 271, 281, 291, 301, 311, 321, 331, 341, 351, 361, 371, 381, 391, 401, 411, 421, 431, 441, 451, 461, 471, 481, 491, 501, 511, 521, 531, 541, 551, 561, 571, 581, 591, 601, 611, 621, 631, 641, 651, 661, 671, 681, 691, 701, 711, 721, 731, 741, 751, 761, 771, 781, 791, 801, 811, 821, 831, 841, 851, 861, 871, 881, 891, 901, 911, 921, 931, 941, 951, 961, 971, 981, 991, 1001, 1011, 1021, 1031, 1041, 1051, 1061, 1071]","1076","1920","[960, 960, 960, 960, 960, 960, 960, 960, 960, 960, 960, 960, 960, 960, 960, 960, 960, 958, 958, 958, 958, 958, 957, 956, 956, 956, 955, 954, 954, 954, 954, 954, 954, 954, 954, 953, 953, 954, 956, 963, 971, 983, 993, 1032, 1053, 1079, 1103, 1156, 1189, 1230, 1270, 1350, 1390, 1426, 1461, 1514, 1539, 1557, 1575, 1598, 1607, 1613, 1619, 1630, 1635, 1637, 1640, 1642, 1643, 1645, 1646, 1648, 1650, 1652, 1652, 1652, 1652, 1652, 1652, 1652, 1652, 1652, 1652, 1653, 1655, 1661, 1668, 1683, 1691, 1698, 1706, 1719, 1726, 1730, 1732, 1735, 1735, 1735, 1735, 1735, 1735, 1735, 1735, 1735, 1735, 1735, 1735]","[1010, 1010, 1010, 1010, 1010, 1010, 1010, 1010, 1010, 1010, 1010, 1010, 1010, 1010, 1010, 1010, 1010, 1011, 1011, 1011, 1011, 1011, 1011, 1011, 1011, 1011, 1011, 1011, 1011, 1011, 1011, 1011, 1011, 1011, 1011, 1011, 1009, 1007, 1004, 994, 987, 978, 969, 935, 918, 895, 873, 822, 787, 749, 710, 638, 602, 564, 531, 451, 412, 377, 345, 295, 271, 249, 227, 188, 173, 161, 150, 128, 122, 116, 109, 96, 90, 86, 84, 82, 81, 81, 81, 81, 81, 81, 81, 80, 80, 80, 80, 80, 80, 80, 80, 80, 80, 80, 80, 80, 80, 80, 80, 80, 80, 80, 80, 80, 80, 80, 80]"
"Trust","Teilnehmer A hat Ihnen 2 Punkte übermittelt.","Payback","1","undefined","6","0","2","60","1080","431","5","1","1110","0","legacy","[11, 21, 31, 41, 51, 61, 71, 81, 91, 101, 111, 121, 131, 141, 151, 161, 171, 181, 191, 201, 211, 221, 231, 241, 251, 261, 271, 281, 291, 301, 311, 321, 331, 341, 351, 361, 371, 381, 391, 401, 411, 421, 431, 441, 451, 461, 471, 481, 491, 501, 511, 521, 531, 541, 551, 561, 571, 581, 591, 601, 611, 621, 631, 641, 651, 661, 671, 681, 691, 701, 711, 721, 731, 741, 751, 761, 771, 781, 791, 801, 811, 821, 831, 841, 851, 861, 871, 881, 891, 901, 911, 921, 931, 941, 951, 961, 971, 981, 991, 1001, 1011, 1021, 1031, 1041, 1051, 1061, 1071, 1081, 1091, 1101]","1076","1920","[960, 960, 960, 960, 960, 960, 960, 960, 960, 960, 960, 960, 960, 960, 960, 960, 961, 961, 963, 964, 964, 965, 966, 966, 966, 966, 966, 966, 966, 966, 967, 967, 968, 968, 969, 970, 970, 973, 978, 982, 985, 992, 1009, 1020, 1035, 1051, 1098, 1128, 1170, 1208, 1282, 1316, 1349, 1370, 1423, 1446, 1464, 1480, 1510, 1525, 1539, 1549, 1563, 1569, 1571, 1576, 1585, 1590, 1594, 1599, 1608, 1613, 1617, 1622, 1631, 1634, 1637, 1639, 1646, 1647, 1650, 1653, 1661, 1666, 1669, 1676, 1684, 1689, 1695, 1698, 1703, 1704, 1705, 1707, 1707, 1707, 1707, 1707, 1708, 1710, 1711, 1713, 1716, 1716, 1717, 1717, 1717, 1717, 1717, 1717]","[1010, 1010, 1010, 1010, 1010, 1010, 1010, 1010, 1010, 1010, 1010, 1010, 1010, 1010, 1010, 1010, 1007, 1007, 1003, 1002, 1002, 1000, 999, 999, 997, 997, 997, 997, 997, 997, 995, 995, 994, 994, 990, 989, 987, 983, 971, 963, 955, 942, 919, 902, 885, 866, 824, 797, 762, 727, 648, 608, 561, 518, 428, 389, 352, 312, 243, 206, 177, 146, 101, 78, 60, 46, 15, 2, 0, 0, 0, 0, 0, 0, 0, 0, 0, 0, 0, 0, 0, 0, 0, 0, 0, 0, 0, 0, 0, 0, 0, 0, 0, 0, 0, 0, 0, 0, 1, 4, 6, 10, 14, 15, 16, 17, 17, 17, 17, 17]"
"NoTrust","Teilnehmer A hat Ihnen keine 2 Punkte übermittelt.","Payback","1","undefined","7","0","2","60","1080","431","0","1","1110","0","legacy","[11, 21, 31, 41, 51, 61, 71, 81, 91, 101, 111, 121, 131, 141, 151, 161, 171, 181, 191, 201, 211, 221, 231, 241, 251, 261, 271, 281, 291, 301, 311, 321, 331, 341, 351, 361, 371, 381, 391, 401, 411, 421, 431, 441, 451, 461, 471, 481, 491, 501, 511, 521, 531, 541, 551, 561, 571, 581, 591, 601, 611, 621, 631, 641, 651, 661, 671, 681, 691, 701, 711, 721, 731, 741, 751, 761, 771, 781, 791, 801, 811, 821, 831, 841, 851, 861, 871, 881, 891, 901, 911, 921, 931, 941, 951, 961, 971, 981, 991, 1001, 1011, 1021, 1031, 1041, 1051, 1061, 1071, 1081, 1091, 1101]","1076","1920","[960, 960, 960, 960, 960, 960, 960, 960, 960, 960, 960, 960, 960, 960, 960, 960, 961, 961, 963, 964, 964, 965, 966, 966, 966, 966, 966, 966, 966, 966, 967, 967, 968, 968, 969, 970, 970, 973, 978, 982, 985, 992, 1009, 1020, 1035, 1051, 1098, 1128, 1170, 1208, 1282, 1316, 1349, 1370, 1423, 1446, 1464, 1480, 1510, 1525, 1539, 1549, 1563, 1569, 1571, 1576, 1585, 1590, 1594, 1599, 1608, 1613, 1617, 1622, 1631, 1634, 1637, 1639, 1646, 1647, 1650, 1653, 1661, 1666, 1669, 1676, 1684, 1689, 1695, 1698, 1703, 1704, 1705, 1707, 1707, 1707, 1707, 1707, 1708, 1710, 1711, 1713, 1716, 1716, 1717, 1717, 1717, 1717, 1717, 1717]","[1010, 1010, 1010, 1010, 1010, 1010, 1010, 1010, 1010, 1010, 1010, 1010, 1010, 1010, 1010, 1010, 1007, 1007, 1003, 1002, 1002, 1000, 999, 999, 997, 997, 997, 997, 997, 997, 995, 995, 994, 994, 990, 989, 987, 983, 971, 963, 955, 942, 919, 902, 885, 866, 824, 797, 762, 727, 648, 608, 561, 518, 428, 389, 352, 312, 243, 206, 177, 146, 101, 78, 60, 46, 15, 2, 0, 0, 0, 0, 0, 0, 0, 0, 0, 0, 0, 0, 0, 0, 0, 0, 0, 0, 0, 0, 0, 0, 0, 0, 0, 0, 0, 0, 0, 0, 1, 4, 6, 10, 14, 15, 16, 17, 17, 17, 17, 17]"
"Trust","Teilnehmer A hat Ihnen 2 Punkte übermittelt.","Payback","1","undefined","8","0","2","60","1080","361","5","1","1414","0","legacy","[11, 21, 31, 41, 51, 61, 71, 81, 91, 101, 111, 121, 131, 141, 151, 161, 171, 181, 191, 201, 211, 221, 231, 241, 251, 261, 271, 281, 291, 301, 311, 321, 331, 341, 351, 361, 371, 381, 391, 401, 411, 421, 431, 441, 451, 461, 471, 481, 491, 501, 511, 521, 531, 541, 551, 561, 571, 581, 591, 601, 611, 621, 631, 641, 651, 661, 671, 681, 691, 701, 711, 721, 731, 741, 751, 761, 771, 781, 791, 801, 811, 821, 831, 841, 851, 861, 871, 881, 891, 901, 911, 921, 931, 941, 951, 961, 971, 981, 991, 1001, 1011, 1021, 1031, 1041, 1051, 1061, 1071, 1081, 1091, 1101, 1111, 1121, 1131, 1141, 1151, 1161, 1171, 1181, 1191, 1201, 1211, 1221, 1231, 1241, 1251, 1261, 1271, 1281, 1291, 1301, 1311, 1321, 1331, 1341, 1351, 1361, 1371, 1381, 1391, 1401, 1411]","1076","1920","[960, 960, 960, 960, 960, 960, 960, 960, 960, 960, 960, 960, 960, 960, 960, 960, 960, 960, 960, 960, 960, 960, 960, 960, 960, 960, 960, 960, 961, 964, 970, 974, 979, 985, 997, 1005, 1015, 1030, 1063, 1080, 1096, 1119, 1155, 1176, 1195, 1214, 1250, 1270, 1287, 1299, 1331, 1347, 1360, 1373, 1401, 1419, 1435, 1456, 1497, 1516, 1533, 1548, 1568, 1575, 1583, 1588, 1596, 1598, 1601, 1602, 1607, 1610, 1612, 1614, 1621, 1626, 1629, 1633, 1641, 1644, 1647, 1653, 1666, 1672, 1679, 1687, 1698, 1706, 1712, 1718, 1729, 1732, 1736, 1739, 1743, 1744, 1744, 1745, 1747, 1749, 1750, 1753, 1757, 1759, 1760, 1762, 1765, 1765, 1765, 1765, 1765, 1765, 1765, 1765, 1765, 1765, 1765, 1765, 1765, 1765, 1765, 1765, 1765, 1765, 1765, 1765, 1765, 1765, 1765, 1765, 1765, 1765, 1765, 1765, 1765, 1765, 1765, 1765, 1765, 1765, 1765]","[1010, 1010, 1010, 1010, 1010, 1010, 1010, 1010, 1010, 1010, 1010, 1010, 1010, 1010, 1010, 1010, 1010, 1010, 1010, 1010, 1010, 1010, 1010, 1010, 1010, 1010, 1007, 1004, 1002, 998, 988, 981, 973, 965, 947, 935, 920, 897, 861, 840, 818, 792, 748, 717, 692, 664, 613, 588, 563, 541, 501, 478, 458, 441, 406, 383, 367, 346, 311, 294, 279, 267, 250, 243, 234, 227, 217, 214, 211, 208, 201, 199, 197, 195, 193, 191, 190, 188, 185, 183, 182, 178, 172, 168, 163, 157, 148, 142, 136, 131, 120, 116, 111, 108, 102, 101, 99, 97, 93, 89, 87, 83, 77, 73, 71, 68, 64, 63, 63, 63, 63, 63, 63, 63, 63, 63, 63, 63, 63, 63, 63, 63, 63, 63, 63, 63, 63, 63, 63, 63, 63, 63, 63, 63, 63, 63, 63, 63, 63, 63, 63]"
"Promise","Wie oft werden Sie die Hälfte zurückgeben?","Promise","1","undefined","8","0","3","60","1080","471","5","1","1112","0","legacy","[11, 21, 31, 41, 51, 61, 71, 81, 91, 101, 111, 121, 131, 141, 151, 161, 171, 181, 191, 201, 211, 221, 231, 241, 251, 261, 271, 281, 291, 301, 311, 321, 331, 341, 351, 361, 371, 381, 391, 401, 411, 421, 431, 441, 451, 461, 471, 481, 491, 501, 511, 521, 531, 541, 551, 561, 571, 581, 591, 601, 611, 621, 631, 641, 651, 661, 671, 681, 691, 701, 711, 721, 731, 741, 751, 761, 771, 781, 791, 801, 811, 821, 831, 841, 851, 861, 871, 881, 891, 901, 911, 921, 931, 941, 951, 961, 971, 981, 991, 1001, 1011, 1021, 1031, 1041, 1051, 1061, 1071, 1081, 1091, 1101, 1111]","1076","1920","[960, 960, 960, 960, 960, 960, 960, 960, 960, 960, 960, 960, 960, 960, 960, 960, 960, 960, 960, 960, 960, 960, 960, 960, 960, 960, 960, 960, 960, 960, 960, 960, 960, 960, 960, 961, 962, 963, 965, 968, 970, 972, 975, 980, 985, 989, 995, 1006, 1009, 1013, 1017, 1024, 1027, 1031, 1036, 1050, 1056, 1066, 1078, 1106, 1129, 1153, 1181, 1241, 1270, 1305, 1337, 1399, 1430, 1457, 1486, 1535, 1554, 1570, 1586, 1619, 1632, 1644, 1657, 1683, 1693, 1703, 1714, 1730, 1740, 1747, 1754, 1767, 1771, 1776, 1780, 1786, 1789, 1789, 1790, 1791, 1791, 1791, 1791, 1791, 1791, 1791, 1791, 1791, 1791, 1791, 1791, 1791, 1791, 1791, 1791]","[1010, 1010, 1010, 1010, 1010, 1010, 1010, 1010, 1010, 1010, 1010, 1010, 1010, 1010, 1010, 1010, 1010, 1010, 1010, 1010, 1010, 1010, 1010, 1010, 1010, 1010, 1010, 1010, 1010, 1010, 1010, 1010, 1010, 1009, 1007, 1000, 998, 994, 989, 980, 975, 971, 966, 955, 948, 942, 935, 923, 917, 914, 909, 900, 898, 893, 888, 876, 870, 862, 851, 828, 807, 787, 766, 717, 690, 661, 629, 564, 532, 503, 469, 408, 381, 358, 335, 290, 271, 251, 238, 208, 196, 185, 176, 157, 149, 141, 135, 122, 119, 114, 111, 105, 103, 102, 102, 101, 101, 101, 101, 101, 101, 101, 101, 101, 101, 101, 101, 101, 101, 101, 101]"
"Trust","Teilnehmer A hat Ihnen 2 Punkte übermittelt.","Payback","1","undefined","9","0","3","60","1080","311","5","1","1070","0","legacy","[11, 21, 31, 41, 51, 61, 71, 81, 91, 101, 111, 121, 131, 141, 151, 161, 171, 181, 191, 201, 211, 221, 231, 241, 251, 261, 271, 281, 291, 301, 311, 321, 331, 341, 351, 361, 371, 381, 391, 401, 411, 421, 431, 441, 451, 461, 471, 481, 491, 501, 511, 521, 531, 541, 551, 561, 571, 581, 591, 601, 611, 621, 631, 641, 651, 661, 671, 681, 691, 701, 711, 721, 731, 741, 751, 761, 771, 781, 791, 801, 811, 821, 831, 841, 851, 861, 871, 881, 891, 901, 911, 921, 931, 941, 951, 961, 971, 981, 991, 1001, 1011, 1021, 1031, 1041, 1051, 1061]","1076","1920","[960, 960, 960, 960, 960, 960, 960, 960, 960, 960, 960, 960, 960, 960, 960, 960, 960, 960, 960, 960, 960, 960, 962, 962, 963, 964, 967, 968, 972, 976, 991, 1007, 1028, 1050, 1106, 1133, 1163, 1195, 1264, 1289, 1318, 1348, 1400, 1424, 1447, 1467, 1503, 1515, 1526, 1536, 1551, 1559, 1567, 1572, 1591, 1601, 1615, 1624, 1643, 1652, 1662, 1670, 1689, 1698, 1706, 1715, 1728, 1734, 1740, 1742, 1750, 1753, 1758, 1760, 1768, 1770, 1772, 1774, 1776, 1779, 1779, 1780, 1781, 1782, 1784, 1785, 1788, 1789, 1791, 1793, 1796, 1796, 1797, 1797, 1798, 1799, 1800, 1800, 1801, 1802, 1802, 1802, 1803, 1803, 1803, 1803]","[1010, 1010, 1010, 1010, 1010, 1010, 1010, 1010, 1010, 1010, 1010, 1010, 1010, 1010, 1010, 1010, 1010, 1010, 1010, 1010, 1010, 1009, 1006, 1003, 1001, 999, 991, 986, 978, 967, 933, 903, 862, 826, 746, 707, 665, 623, 536, 497, 458, 416, 343, 309, 283, 260, 221, 206, 193, 183, 166, 156, 148, 143, 127, 121, 111, 105, 94, 89, 83, 77, 67, 64, 61, 57, 54, 52, 50, 49, 46, 45, 42, 41, 38, 38, 37, 37, 36, 35, 35, 35, 35, 34, 34, 33, 33, 33, 33, 33, 33, 33, 33, 33, 33, 33, 33, 34, 34, 35, 35, 35, 35, 35, 35, 35]"
"Trust","Teilnehmer A hat Ihnen 2 Punkte übermittelt.","Payback","1","undefined","10","0","3","60","1080","311","5","1","1350","0","legacy","[11, 21, 31, 41, 51, 61, 71, 81, 91, 101, 111, 121, 131, 141, 151, 161, 171, 181, 191, 201, 211, 221, 231, 241, 251, 261, 271, 281, 291, 301, 311, 321, 331, 341, 351, 361, 371, 381, 391, 401, 411, 421, 431, 441, 451, 461, 471, 481, 491, 501, 511, 521, 531, 541, 551, 561, 571, 581, 591, 601, 611, 621, 631, 641, 651, 661, 671, 681, 691, 701, 711, 721, 731, 741, 751, 761, 771, 781, 791, 801, 811, 821, 831, 841, 851, 861, 871, 881, 891, 901, 911, 921, 931, 941, 951, 961, 971, 981, 991, 1001, 1011, 1021, 1031, 1041, 1051, 1061, 1071, 1081, 1091, 1101, 1111, 1121, 1131, 1141, 1151, 1161, 1171, 1181, 1191, 1201, 1211, 1221, 1231, 1241, 1251, 1261, 1271, 1281, 1291, 1301, 1311, 1321, 1331, 1341]","1076","1920","[960, 960, 960, 960, 960, 960, 960, 960, 960, 960, 960, 960, 960, 960, 960, 960, 960, 960, 960, 960, 961, 962, 964, 966, 968, 972, 980, 984, 990, 998, 1013, 1028, 1044, 1061, 1115, 1145, 1179, 1211, 1279, 1307, 1337, 1362, 1404, 1424, 1449, 1471, 1523, 1551, 1580, 1610, 1648, 1670, 1686, 1701, 1725, 1735, 1747, 1756, 1774, 1784, 1793, 1801, 1815, 1820, 1826, 1832, 1840, 1844, 1848, 1851, 1855, 1857, 1858, 1860, 1865, 1866, 1866, 1868, 1868, 1868, 1868, 1868, 1868, 1868, 1868, 1866, 1862, 1857, 1854, 1851, 1844, 1841, 1839, 1835, 1825, 1821, 1817, 1811, 1804, 1801, 1800, 1799, 1799, 1799, 1799, 1799, 1799, 1799, 1799, 1799, 1799, 1799, 1799, 1799, 1799, 1799, 1799, 1799, 1799, 1799, 1799, 1799, 1799, 1799, 1799, 1799, 1799, 1799, 1799, 1799, 1799, 1799, 1799, 1799]","[1010, 1010, 1010, 1010, 1010, 1010, 1010, 1010, 1010, 1010, 1010, 1010, 1010, 1010, 1010, 1010, 1010, 1010, 1010, 1009, 1007, 1003, 1001, 997, 995, 990, 980, 973, 966, 955, 933, 915, 890, 865, 789, 750, 708, 666, 573, 524, 482, 434, 340, 289, 232, 189, 99, 57, 18, 0, 0, 0, 0, 0, 0, 0, 0, 0, 0, 0, 0, 0, 0, 0, 0, 3, 8, 11, 14, 16, 19, 21, 22, 23, 25, 25, 25, 25, 25, 25, 25, 25, 25, 27, 27, 31, 36, 39, 40, 43, 47, 50, 52, 54, 62, 64, 67, 71, 77, 78, 80, 80, 80, 80, 80, 80, 80, 80, 80, 80, 80, 80, 80, 80, 80, 80, 80, 80, 80, 80, 80, 80, 80, 80, 80, 80, 80, 80, 80, 80, 80, 80, 80, 80]"
"Trust","Teilnehmer A hat Ihnen 2 Punkte übermittelt.","Payback","1","undefined","11","0","3","60","1080","301","5","1","988","0","legacy","[11, 21, 31, 41, 51, 61, 71, 81, 91, 101, 111, 121, 131, 141, 151, 161, 171, 181, 191, 201, 211, 221, 231, 241, 251, 261, 271, 281, 291, 301, 311, 321, 331, 341, 351, 361, 371, 381, 391, 401, 411, 421, 431, 441, 451, 461, 471, 481, 491, 501, 511, 521, 531, 541, 551, 561, 571, 581, 591, 601, 611, 621, 631, 641, 651, 661, 671, 681, 691, 701, 711, 721, 731, 741, 751, 761, 771, 781, 791, 801, 811, 821, 831, 841, 851, 861, 871, 881, 891, 901, 911, 921, 931, 941, 951, 961, 971, 981]","1076","1920","[960, 960, 960, 960, 960, 960, 960, 960, 960, 960, 960, 960, 960, 960, 960, 960, 960, 960, 960, 960, 960, 960, 961, 964, 968, 977, 983, 991, 1005, 1057, 1081, 1113, 1153, 1233, 1271, 1310, 1347, 1418, 1448, 1469, 1490, 1525, 1538, 1550, 1559, 1573, 1579, 1581, 1584, 1590, 1591, 1593, 1597, 1599, 1602, 1602, 1602, 1606, 1606, 1607, 1611, 1614, 1617, 1619, 1623, 1627, 1630, 1633, 1636, 1646, 1653, 1661, 1669, 1686, 1694, 1702, 1708, 1718, 1722, 1722, 1723, 1723, 1723, 1723, 1723, 1723, 1723, 1723, 1723, 1723, 1723, 1723, 1723, 1723, 1723, 1723, 1723, 1723]","[1010, 1010, 1010, 1010, 1010, 1010, 1010, 1010, 1010, 1010, 1010, 1010, 1010, 1010, 1010, 1010, 1010, 1010, 1010, 1010, 1010, 1010, 1006, 1003, 998, 986, 978, 967, 951, 897, 873, 843, 809, 732, 694, 654, 618, 533, 494, 463, 428, 370, 341, 312, 284, 234, 212, 191, 172, 144, 133, 122, 112, 98, 92, 89, 86, 82, 81, 78, 75, 71, 69, 67, 64, 61, 60, 59, 58, 58, 58, 58, 58, 59, 59, 61, 62, 65, 66, 66, 67, 67, 67, 67, 67, 67, 67, 67, 67, 67, 67, 67, 67, 67, 67, 67, 67, 67]"
"Promise","Wie oft werden Sie die Hälfte zurückgeben?","Promise","1","undefined","11","0","4","60","1080","1031","5","1","1608","0","legacy","[11, 21, 31, 41, 51, 61, 71, 81, 91, 101, 111, 121, 131, 141, 151, 161, 171, 181, 191, 201, 211, 221, 231, 241, 251, 261, 271, 281, 291, 301, 311, 321, 331, 341, 351, 361, 371, 381, 391, 401, 411, 421, 431, 441, 451, 461, 471, 481, 491, 501, 511, 521, 531, 541, 551, 561, 571, 581, 591, 601, 611, 621, 631, 641, 651, 661, 671, 681, 691, 701, 711, 721, 731, 741, 751, 761, 771, 781, 791, 801, 811, 821, 831, 841, 851, 861, 871, 881, 891, 901, 911, 921, 931, 941, 951, 961, 971, 981, 991, 1001, 1011, 1021, 1031, 1041, 1051, 1061, 1071, 1081, 1091, 1101, 1111, 1121, 1131, 1141, 1151, 1161, 1171, 1181, 1191, 1201, 1211, 1221, 1231, 1241, 1251, 1261, 1271, 1281, 1291, 1301, 1311, 1321, 1331, 1341, 1351, 1361, 1371, 1381, 1391, 1401, 1411, 1421, 1431, 1441, 1451, 1461, 1471, 1481, 1491, 1501, 1511, 1521, 1531, 1541, 1551, 1561, 1571, 1581, 1591, 1601]","1076","1920","[960, 960, 960, 960, 960, 960, 960, 960, 960, 960, 960, 960, 960, 960, 960, 960, 960, 960, 960, 960, 960, 960, 960, 960, 960, 960, 960, 960, 960, 960, 960, 960, 960, 960, 960, 960, 959, 959, 959, 958, 958, 957, 957, 957, 956, 956, 956, 956, 956, 956, 956, 956, 956, 956, 956, 956, 956, 956, 956, 956, 956, 956, 956, 956, 956, 956, 956, 956, 956, 956, 956, 956, 956, 956, 956, 956, 956, 956, 956, 956, 956, 956, 956, 956, 956, 956, 956, 956, 956, 956, 956, 956, 955, 955, 955, 956, 958, 962, 966, 979, 988, 1002, 1021, 1075, 1109, 1152, 1192, 1277, 1319, 1357, 1392, 1464, 1493, 1531, 1555, 1604, 1620, 1633, 1644, 1659, 1665, 1672, 1679, 1691, 1696, 1702, 1707, 1724, 1732, 1739, 1746, 1761, 1769, 1775, 1782, 1795, 1800, 1806, 1811, 1822, 1827, 1832, 1837, 1842, 1847, 1847, 1849, 1853, 1855, 1857, 1857, 1858, 1858, 1858, 1858, 1858, 1858, 1858, 1858, 1858]","[1010, 1010, 1010, 1010, 1010, 1010, 1010, 1010, 1010, 1010, 1010, 1010, 1010, 1010, 1010, 1010, 1010, 1010, 1010, 1010, 1010, 1010, 1010, 1010, 1010, 1010, 1010, 1010, 1010, 1010, 1010, 1010, 1010, 1010, 1010, 1010, 1010, 1010, 1010, 1010, 1010, 1010, 1010, 1010, 1010, 1010, 1010, 1010, 1010, 1010, 1010, 1010, 1010, 1010, 1010, 1010, 1010, 1010, 1010, 1010, 1010, 1010, 1010, 1010, 1010, 1010, 1010, 1010, 1010, 1010, 1010, 1010, 1010, 1010, 1010, 1010, 1010, 1010, 1010, 1010, 1010, 1010, 1010, 1010, 1010, 1010, 1010, 1010, 1010, 1010, 1010, 1010, 1009, 1009, 1008, 1003, 1001, 995, 989, 972, 963, 949, 930, 877, 846, 812, 778, 707, 670, 632, 600, 533, 506, 472, 446, 399, 381, 366, 350, 328, 318, 308, 299, 282, 275, 267, 261, 240, 231, 224, 215, 197, 189, 182, 174, 159, 150, 142, 135, 120, 112, 105, 99, 88, 82, 77, 72, 63, 57, 54, 51, 46, 46, 45, 45, 45, 45, 45, 45, 45]"
"Trust","Teilnehmer A hat Ihnen 2 Punkte übermittelt.","Payback","1","undefined","12","0","4","60","1080","331","5","1","1133","0","legacy","[11, 21, 31, 41, 51, 61, 71, 81, 91, 101, 111, 121, 131, 141, 151, 161, 171, 181, 191, 201, 211, 221, 231, 241, 251, 261, 271, 281, 291, 301, 311, 321, 331, 341, 351, 361, 371, 381, 391, 401, 411, 421, 431, 441, 451, 461, 471, 481, 491, 501, 511, 521, 531, 541, 551, 561, 571, 581, 591, 601, 611, 621, 631, 641, 651, 661, 671, 681, 691, 701, 711, 721, 731, 741, 751, 761, 771, 781, 791, 801, 811, 821, 831, 841, 851, 861, 871, 881, 891, 901, 911, 921, 931, 941, 951, 961, 971, 981, 991, 1001, 1011, 1021, 1031, 1041, 1051, 1061, 1071, 1081, 1091, 1101, 1111, 1121, 1131]","1076","1920","[960, 960, 960, 960, 960, 960, 960, 960, 960, 960, 960, 960, 960, 960, 960, 960, 960, 960, 960, 960, 960, 960, 960, 960, 962, 964, 967, 971, 974, 980, 998, 1011, 1027, 1046, 1083, 1100, 1119, 1143, 1189, 1211, 1231, 1248, 1286, 1301, 1319, 1327, 1346, 1351, 1358, 1366, 1380, 1387, 1395, 1401, 1413, 1419, 1424, 1431, 1445, 1452, 1458, 1469, 1485, 1496, 1503, 1514, 1532, 1542, 1553, 1561, 1578, 1588, 1598, 1606, 1624, 1633, 1641, 1649, 1661, 1667, 1671, 1673, 1679, 1682, 1684, 1686, 1691, 1694, 1695, 1698, 1706, 1711, 1717, 1726, 1740, 1747, 1753, 1758, 1764, 1767, 1767, 1768, 1768, 1768, 1768, 1768, 1768, 1768, 1768, 1768, 1768, 1768, 1768]","[1010, 1010, 1010, 1010, 1010, 1010, 1010, 1010, 1010, 1010, 1010, 1010, 1010, 1010, 1010, 1010, 1010, 1010, 1010, 1010, 1010, 1010, 1010, 1010, 1007, 1005, 999, 992, 987, 980, 957, 944, 930, 909, 865, 847, 826, 802, 754, 733, 707, 689, 645, 625, 604, 593, 563, 552, 539, 529, 510, 500, 489, 481, 463, 455, 447, 439, 421, 414, 407, 397, 380, 371, 363, 354, 336, 326, 313, 303, 283, 272, 262, 252, 230, 219, 210, 200, 182, 174, 168, 163, 152, 148, 144, 142, 138, 136, 134, 132, 124, 120, 115, 110, 99, 94, 88, 85, 79, 77, 77, 76, 76, 76, 76, 76, 76, 76, 76, 76, 76, 76, 76]"
"Trust","Teilnehmer A hat Ihnen 2 Punkte übermittelt.","Payback","1","undefined","13","0","4","60","1080","431","5","1","1164","0","legacy","[11, 21, 31, 41, 51, 61, 71, 81, 91, 101, 111, 121, 131, 141, 151, 161, 171, 181, 191, 201, 211, 221, 231, 241, 251, 261, 271, 281, 291, 301, 311, 321, 331, 341, 351, 361, 371, 381, 391, 401, 411, 421, 431, 441, 451, 461, 471, 481, 491, 501, 511, 521, 531, 541, 551, 561, 571, 581, 591, 601, 611, 621, 631, 641, 651, 661, 671, 681, 691, 701, 711, 721, 731, 741, 751, 761, 771, 781, 791, 801, 811, 821, 831, 841, 851, 861, 871, 881, 891, 901, 911, 921, 931, 941, 951, 961, 971, 981, 991, 1001, 1011, 1021, 1031, 1041, 1051, 1061, 1071, 1081, 1091, 1101, 1111, 1121, 1131, 1141, 1151, 1161]","1076","1920","[960, 960, 960, 960, 960, 960, 960, 960, 960, 960, 960, 960, 960, 960, 960, 960, 960, 960, 960, 960, 960, 960, 960, 960, 960, 960, 960, 960, 960, 962, 962, 962, 963, 964, 965, 966, 967, 969, 970, 972, 976, 986, 991, 1001, 1009, 1039, 1061, 1084, 1104, 1159, 1188, 1214, 1246, 1294, 1323, 1349, 1374, 1421, 1445, 1463, 1480, 1507, 1519, 1531, 1538, 1553, 1559, 1565, 1569, 1580, 1583, 1588, 1592, 1596, 1598, 1598, 1600, 1604, 1604, 1606, 1609, 1613, 1617, 1622, 1626, 1633, 1635, 1640, 1644, 1654, 1657, 1664, 1670, 1681, 1686, 1691, 1693, 1696, 1696, 1696, 1696, 1696, 1696, 1696, 1696, 1696, 1696, 1696, 1696, 1696, 1696, 1696, 1696, 1696, 1696, 1696]","[1010, 1010, 1010, 1010, 1010, 1010, 1010, 1010, 1010, 1010, 1010, 1010, 1010, 1010, 1010, 1010, 1010, 1010, 1010, 1010, 1010, 1010, 1010, 1010, 1010, 1010, 1010, 1010, 1010, 1008, 1007, 1005, 1005, 1002, 1000, 997, 994, 985, 981, 974, 965, 944, 931, 914, 896, 851, 823, 794, 764, 691, 659, 622, 585, 518, 481, 452, 423, 371, 346, 326, 305, 275, 260, 245, 235, 213, 203, 193, 184, 166, 161, 152, 146, 138, 133, 130, 128, 122, 121, 117, 114, 109, 105, 101, 98, 91, 89, 86, 82, 75, 71, 66, 60, 54, 50, 47, 45, 43, 42, 42, 42, 42, 42, 42, 42, 42, 42, 42, 42, 42, 42, 42, 42, 42, 42, 42]"
"Trust","Teilnehmer A hat Ihnen 2 Punkte übermittelt.","Payback","1","undefined","14","0","4","60","1080","341","5","1","1037","0","legacy","[11, 21, 31, 41, 51, 61, 71, 81, 91, 101, 111, 121, 131, 141, 151, 161, 171, 181, 191, 201, 211, 221, 231, 241, 251, 261, 271, 281, 291, 301, 311, 321, 331, 341, 351, 361, 371, 381, 391, 401, 411, 421, 431, 441, 451, 461, 471, 481, 491, 501, 511, 521, 531, 541, 551, 561, 571, 581, 591, 601, 611, 621, 631, 641, 651, 661, 671, 681, 691, 701, 711, 721, 731, 741, 751, 761, 771, 781, 791, 801, 811, 821, 831, 841, 851, 861, 871, 881, 891, 901, 911, 921, 931, 941, 951, 961, 971, 981, 991, 1001, 1011, 1021, 1031]","1076","1920","[960, 960, 960, 960, 960, 960, 960, 960, 960, 960, 960, 960, 960, 960, 960, 960, 960, 961, 961, 961, 961, 961, 962, 963, 964, 965, 970, 973, 977, 982, 995, 1001, 1007, 1017, 1039, 1054, 1068, 1085, 1129, 1156, 1182, 1208, 1260, 1286, 1306, 1325, 1348, 1360, 1369, 1378, 1396, 1405, 1415, 1422, 1439, 1448, 1455, 1465, 1484, 1494, 1505, 1514, 1532, 1541, 1549, 1558, 1575, 1583, 1589, 1597, 1616, 1627, 1633, 1643, 1660, 1668, 1675, 1682, 1698, 1705, 1709, 1714, 1721, 1726, 1727, 1731, 1734, 1735, 1737, 1738, 1740, 1740, 1740, 1740, 1741, 1741, 1741, 1741, 1741, 1741, 1741, 1741, 1741]","[1010, 1010, 1010, 1010, 1010, 1010, 1010, 1010, 1010, 1010, 1010, 1010, 1010, 1010, 1010, 1010, 1010, 1009, 1007, 1007, 1006, 1005, 1004, 1002, 1001, 1000, 992, 987, 982, 975, 958, 951, 941, 929, 898, 878, 858, 837, 789, 767, 744, 721, 680, 657, 640, 623, 597, 582, 570, 557, 533, 519, 509, 499, 481, 471, 462, 451, 434, 426, 416, 406, 388, 379, 370, 360, 339, 330, 322, 312, 290, 274, 264, 251, 224, 208, 197, 182, 157, 145, 135, 125, 109, 102, 97, 90, 82, 79, 75, 73, 68, 67, 67, 65, 64, 64, 64, 64, 64, 64, 64, 64, 64]"
"Promise","Wie oft werden Sie die Hälfte zurückgeben?","Promise","1","undefined","14","0","5","60","1080","411","5","1","1240","0","legacy","[11, 21, 31, 41, 51, 61, 71, 81, 91, 101, 111, 121, 131, 141, 151, 161, 171, 181, 191, 201, 211, 221, 231, 241, 251, 261, 271, 281, 291, 301, 311, 321, 331, 341, 351, 361, 371, 381, 391, 401, 411, 421, 431, 441, 451, 461, 471, 481, 491, 501, 511, 521, 531, 541, 551, 561, 571, 581, 591, 601, 611, 621, 631, 641, 651, 661, 671, 681, 691, 701, 711, 721, 731, 741, 751, 761, 771, 781, 791, 801, 811, 821, 831, 841, 851, 861, 871, 881, 891, 901, 911, 921, 931, 941, 951, 961, 971, 981, 991, 1001, 1011, 1021, 1031, 1041, 1051, 1061, 1071, 1081, 1091, 1101, 1111, 1121, 1131, 1141, 1151, 1161, 1171, 1181, 1191, 1201, 1211, 1221, 1231]","1076","1920","[960, 960, 960, 960, 960, 960, 960, 960, 960, 960, 960, 960, 960, 960, 960, 960, 960, 960, 960, 960, 960, 960, 960, 960, 960, 960, 960, 960, 961, 963, 964, 969, 972, 977, 981, 990, 998, 1004, 1012, 1031, 1042, 1049, 1060, 1088, 1110, 1130, 1150, 1197, 1223, 1251, 1281, 1349, 1385, 1418, 1444, 1504, 1530, 1561, 1584, 1627, 1640, 1657, 1672, 1691, 1700, 1709, 1717, 1726, 1731, 1734, 1737, 1743, 1747, 1750, 1752, 1756, 1758, 1761, 1763, 1768, 1771, 1772, 1773, 1778, 1780, 1782, 1782, 1786, 1786, 1787, 1788, 1790, 1790, 1791, 1791, 1794, 1795, 1796, 1797, 1801, 1802, 1803, 1804, 1808, 1808, 1809, 1812, 1816, 1818, 1819, 1821, 1826, 1827, 1828, 1829, 1831, 1831, 1831, 1831, 1831, 1831, 1831, 1831]","[1010, 1010, 1010, 1010, 1010, 1010, 1010, 1010, 1010, 1010, 1010, 1010, 1010, 1010, 1010, 1010, 1010, 1010, 1010, 1010, 1010, 1010, 1010, 1010, 1010, 1010, 1010, 1009, 1007, 1005, 1003, 997, 994, 990, 986, 976, 968, 962, 956, 941, 932, 923, 911, 880, 859, 841, 826, 788, 767, 748, 726, 677, 650, 628, 608, 558, 538, 516, 500, 464, 453, 438, 426, 405, 396, 387, 378, 365, 357, 351, 345, 332, 323, 318, 311, 298, 294, 286, 279, 266, 258, 251, 246, 231, 224, 217, 210, 197, 191, 187, 181, 172, 168, 165, 161, 152, 149, 145, 144, 137, 135, 131, 128, 122, 119, 114, 109, 100, 96, 91, 88, 77, 75, 70, 69, 66, 66, 66, 66, 66, 66, 66, 66]"
"Trust","Teilnehmer A hat Ihnen 2 Punkte übermittelt.","Payback","1","undefined","15","0","5","60","1080","301","5","1","995","0","legacy","[11, 21, 31, 41, 51, 61, 71, 81, 91, 101, 111, 121, 131, 141, 151, 161, 171, 181, 191, 201, 211, 221, 231, 241, 251, 261, 271, 281, 291, 301, 311, 321, 331, 341, 351, 361, 371, 381, 391, 401, 411, 421, 431, 441, 451, 461, 471, 481, 491, 501, 511, 521, 531, 541, 551, 561, 571, 581, 591, 601, 611, 621, 631, 641, 651, 661, 671, 681, 691, 701, 711, 721, 731, 741, 751, 761, 771, 781, 791, 801, 811, 821, 831, 841, 851, 861, 871, 881, 891, 901, 911, 921, 931, 941, 951, 961, 971, 981, 991]","1076","1920","[960, 960, 960, 960, 960, 960, 960, 960, 960, 960, 960, 960, 960, 960, 960, 960, 960, 960, 960, 960, 960, 960, 962, 966, 972, 984, 991, 1002, 1015, 1053, 1077, 1108, 1138, 1215, 1255, 1297, 1337, 1419, 1456, 1492, 1523, 1581, 1605, 1625, 1645, 1666, 1676, 1683, 1692, 1705, 1710, 1713, 1717, 1724, 1727, 1728, 1729, 1731, 1731, 1731, 1731, 1731, 1731, 1731, 1731, 1731, 1731, 1731, 1731, 1734, 1737, 1739, 1742, 1748, 1750, 1754, 1759, 1763, 1765, 1766, 1767, 1768, 1768, 1769, 1769, 1769, 1769, 1769, 1769, 1769, 1769, 1769, 1769, 1769, 1769, 1769, 1769, 1769, 1769]","[1010, 1010, 1010, 1010, 1010, 1010, 1010, 1010, 1010, 1010, 1010, 1010, 1010, 1010, 1010, 1010, 1010, 1010, 1010, 1010, 1010, 1010, 1007, 1003, 998, 988, 980, 970, 955, 917, 895, 858, 826, 763, 727, 693, 657, 591, 564, 537, 513, 462, 440, 425, 404, 373, 356, 343, 329, 304, 293, 284, 275, 259, 252, 246, 242, 233, 230, 229, 225, 223, 221, 221, 218, 215, 211, 208, 204, 193, 186, 176, 166, 148, 139, 129, 121, 105, 99, 92, 89, 83, 80, 80, 78, 77, 77, 77, 77, 77, 77, 77, 77, 77, 77, 77, 77, 77, 77]"
"NoTrust","Teilnehmer A hat Ihnen keine 2 Punkte übermittelt.","Payback","1","undefined","16","0","5","60","1080","301","0","1","995","0","legacy","[11, 21, 31, 41, 51, 61, 71, 81, 91, 101, 111, 121, 131, 141, 151, 161, 171, 181, 191, 201, 211, 221, 231, 241, 251, 261, 271, 281, 291, 301, 311, 321, 331, 341, 351, 361, 371, 381, 391, 401, 411, 421, 431, 441, 451, 461, 471, 481, 491, 501, 511, 521, 531, 541, 551, 561, 571, 581, 591, 601, 611, 621, 631, 641, 651, 661, 671, 681, 691, 701, 711, 721, 731, 741, 751, 761, 771, 781, 791, 801, 811, 821, 831, 841, 851, 861, 871, 881, 891, 901, 911, 921, 931, 941, 951, 961, 971, 981, 991]","1076","1920","[960, 960, 960, 960, 960, 960, 960, 960, 960, 960, 960, 960, 960, 960, 960, 960, 960, 960, 960, 960, 960, 960, 962, 966, 972, 984, 991, 1002, 1015, 1053, 1077, 1108, 1138, 1215, 1255, 1297, 1337, 1419, 1456, 1492, 1523, 1581, 1605, 1625, 1645, 1666, 1676, 1683, 1692, 1705, 1710, 1713, 1717, 1724, 1727, 1728, 1729, 1731, 1731, 1731, 1731, 1731, 1731, 1731, 1731, 1731, 1731, 1731, 1731, 1734, 1737, 1739, 1742, 1748, 1750, 1754, 1759, 1763, 1765, 1766, 1767, 1768, 1768, 1769, 1769, 1769, 1769, 1769, 1769, 1769, 1769, 1769, 1769, 1769, 1769, 1769, 1769, 1769, 1769]","[1010, 1010, 1010, 1010, 1010, 1010, 1010, 1010, 1010, 1010, 1010, 1010, 1010, 1010, 1010, 1010, 1010, 1010, 1010, 1010, 1010, 1010, 1007, 1003, 998, 988, 980, 970, 955, 917, 895, 858, 826, 763, 727, 693, 657, 591, 564, 537, 513, 462, 440, 425, 404, 373, 356, 343, 329, 304, 293, 284, 275, 259, 252, 246, 242, 233, 230, 229, 225, 223, 221, 221, 218, 215, 211, 208, 204, 193, 186, 176, 166, 148, 139, 129, 121, 105, 99, 92, 89, 83, 80, 80, 78, 77, 77, 77, 77, 77, 77, 77, 77, 77, 77, 77, 77, 77, 77]"
"Trust","Teilnehmer A hat Ihnen 2 Punkte übermittelt.","Payback","1","undefined","17","0","5","60","1080","471","5","1","1228","0","legacy","[11, 21, 31, 41, 51, 61, 71, 81, 91, 101, 111, 121, 131, 141, 151, 161, 171, 181, 191, 201, 211, 221, 231, 241, 251, 261, 271, 281, 291, 301, 311, 321, 331, 341, 351, 361, 371, 381, 391, 401, 411, 421, 431, 441, 451, 461, 471, 481, 491, 501, 511, 521, 531, 541, 551, 561, 571, 581, 591, 601, 611, 621, 631, 641, 651, 661, 671, 681, 691, 701, 711, 721, 731, 741, 751, 761, 771, 781, 791, 801, 811, 821, 831, 841, 851, 861, 871, 881, 891, 901, 911, 921, 931, 941, 951, 961, 971, 981, 991, 1001, 1011, 1021, 1031, 1041, 1051, 1061, 1071, 1081, 1091, 1101, 1111, 1121, 1131, 1141, 1151, 1161, 1171, 1181, 1191, 1201, 1211, 1221]","1076","1920","[960, 960, 960, 960, 960, 960, 960, 960, 960, 960, 960, 960, 959, 959, 958, 957, 957, 957, 956, 956, 955, 952, 950, 948, 946, 942, 940, 938, 937, 935, 935, 935, 934, 934, 934, 934, 934, 934, 934, 934, 934, 941, 948, 957, 970, 1005, 1028, 1053, 1073, 1104, 1119, 1133, 1151, 1190, 1210, 1235, 1258, 1311, 1339, 1366, 1385, 1418, 1442, 1460, 1478, 1522, 1540, 1554, 1570, 1601, 1617, 1631, 1650, 1682, 1697, 1716, 1735, 1766, 1779, 1791, 1803, 1824, 1831, 1839, 1847, 1854, 1859, 1861, 1863, 1863, 1863, 1863, 1863, 1863, 1863, 1863, 1863, 1863, 1863, 1863, 1863, 1862, 1859, 1858, 1855, 1849, 1845, 1843, 1838, 1832, 1830, 1828, 1827, 1827, 1827, 1827, 1827, 1827, 1827, 1827, 1827, 1827]","[1010, 1010, 1010, 1010, 1010, 1010, 1010, 1010, 1010, 1010, 1010, 1010, 1010, 1010, 1010, 1009, 1008, 1006, 1005, 1005, 1005, 1005, 1005, 1005, 1005, 1006, 1007, 1008, 1008, 1009, 1009, 1009, 1009, 1009, 1009, 1009, 1009, 1009, 1009, 1009, 1009, 1004, 997, 985, 970, 940, 924, 905, 890, 868, 858, 847, 834, 807, 793, 775, 758, 722, 703, 684, 667, 637, 615, 598, 583, 546, 531, 513, 493, 453, 430, 410, 383, 328, 303, 278, 250, 195, 166, 140, 111, 59, 36, 13, 0, 0, 0, 0, 0, 0, 0, 0, 0, 0, 0, 0, 0, 0, 0, 0, 1, 6, 10, 12, 15, 22, 26, 29, 34, 42, 45, 46, 48, 48, 48, 48, 48, 48, 48, 48, 48, 48]"
"Promise","Wie oft werden Sie die Hälfte zurückgeben?","Promise","1","undefined","17","0","6","60","1080","601","5","1","2272","0","legacy","[11, 21, 31, 41, 51, 61, 71, 81, 91, 101, 111, 121, 131, 141, 151, 161, 171, 181, 191, 201, 211, 221, 231, 241, 251, 261, 271, 281, 291, 301, 311, 321, 331, 341, 351, 361, 371, 381, 391, 401, 411, 421, 431, 441, 451, 461, 471, 481, 491, 501, 511, 521, 531, 541, 551, 561, 571, 581, 591, 601, 611, 621, 631, 641, 651, 661, 671, 681, 691, 701, 711, 721, 731, 741, 751, 761, 771, 781, 791, 801, 811, 821, 831, 841, 851, 861, 871, 881, 891, 901, 911, 921, 931, 941, 951, 961, 971, 981, 991, 1001, 1011, 1021, 1031, 1041, 1051, 1061, 1071, 1081, 1091, 1101, 1111, 1121, 1131, 1141, 1151, 1161, 1171, 1181, 1191, 1201, 1211, 1221, 1231, 1241, 1251, 1261, 1271, 1281, 1291, 1301, 1311, 1321, 1331, 1341, 1351, 1361, 1371, 1381, 1391, 1401, 1411, 1421, 1431, 1441, 1451, 1461, 1471, 1481, 1491, 1501, 1511, 1521, 1531, 1541, 1551, 1561, 1571, 1581, 1591, 1601, 1611, 1621, 1631, 1641, 1651, 1661, 1671, 1681, 1691, 1701, 1711, 1721, 1731, 1741, 1751, 1761, 1771, 1781, 1791, 1801, 1811, 1821, 1831, 1841, 1851, 1861, 1871, 1881, 1891, 1901, 1911, 1921, 1931, 1941, 1951, 1961, 1971, 1981, 1991, 2001, 2011, 2021, 2031, 2041, 2051, 2061, 2071, 2081, 2091, 2101, 2111, 2121, 2131, 2141, 2151, 2161, 2171, 2181, 2191, 2201, 2211, 2221, 2231, 2241, 2251, 2261, 2271]","1076","1920","[960, 960, 960, 960, 960, 960, 960, 961, 961, 961, 961, 961, 961, 961, 961, 961, 961, 961, 961, 961, 961, 961, 961, 960, 960, 960, 959, 958, 958, 958, 957, 957, 957, 957, 957, 957, 957, 957, 957, 957, 957, 957, 957, 957, 957, 957, 957, 957, 957, 957, 957, 957, 967, 984, 1004, 1051, 1067, 1083, 1095, 1119, 1133, 1146, 1160, 1186, 1205, 1220, 1234, 1266, 1278, 1294, 1306, 1343, 1358, 1381, 1399, 1432, 1448, 1460, 1476, 1503, 1518, 1528, 1539, 1555, 1563, 1571, 1576, 1586, 1590, 1593, 1594, 1596, 1597, 1597, 1597, 1597, 1597, 1597, 1597, 1597, 1597, 1597, 1597, 1597, 1597, 1597, 1597, 1597, 1597, 1597, 1597, 1597, 1597, 1597, 1597, 1596, 1592, 1586, 1579, 1561, 1548, 1537, 1525, 1498, 1484, 1466, 1451, 1421, 1409, 1394, 1377, 1350, 1337, 1324, 1311, 1286, 1275, 1269, 1265, 1258, 1257, 1257, 1255, 1254, 1253, 1253, 1253, 1253, 1253, 1253, 1253, 1253, 1253, 1253, 1253, 1253, 1253, 1253, 1254, 1266, 1276, 1288, 1298, 1316, 1329, 1346, 1366, 1415, 1442, 1463, 1488, 1520, 1531, 1539, 1548, 1556, 1561, 1565, 1568, 1578, 1580, 1585, 1590, 1595, 1600, 1603, 1605, 1609, 1610, 1611, 1612, 1613, 1613, 1613, 1613, 1613, 1613, 1614, 1614, 1618, 1621, 1627, 1632, 1647, 1656, 1663, 1671, 1683, 1689, 1695, 1702, 1707, 1709, 1710, 1711, 1711, 1711, 1711, 1711, 1711, 1711, 1711, 1711, 1711, 1711, 1711, 1711]","[1010, 1010, 1010, 1010, 1010, 1010, 1010, 1010, 1010, 1010, 1010, 1010, 1010, 1010, 1010, 1010, 1010, 1010, 1010, 1010, 1010, 1010, 1010, 1010, 1010, 1010, 1010, 1010, 1010, 1010, 1010, 1010, 1010, 1010, 1010, 1010, 1010, 1010, 1010, 1010, 1010, 1010, 1010, 1010, 1010, 1010, 1010, 1010, 1010, 1010, 1010, 1010, 1008, 998, 990, 971, 961, 952, 945, 927, 914, 903, 891, 873, 861, 849, 838, 815, 803, 789, 778, 745, 731, 713, 696, 669, 655, 644, 630, 606, 594, 586, 576, 560, 552, 545, 538, 528, 523, 519, 517, 515, 514, 513, 513, 513, 513, 513, 513, 513, 513, 513, 513, 513, 513, 513, 513, 513, 513, 513, 513, 513, 513, 513, 513, 513, 513, 515, 515, 517, 519, 521, 521, 521, 521, 521, 521, 521, 521, 521, 521, 521, 521, 523, 523, 528, 529, 530, 530, 531, 531, 532, 532, 532, 532, 532, 532, 532, 532, 532, 532, 532, 532, 532, 532, 532, 532, 532, 532, 525, 521, 516, 512, 503, 497, 489, 481, 453, 438, 420, 402, 366, 349, 331, 312, 285, 267, 255, 241, 210, 198, 184, 169, 147, 138, 130, 124, 113, 111, 110, 107, 106, 106, 106, 106, 106, 106, 105, 105, 104, 102, 99, 97, 91, 87, 84, 80, 75, 72, 70, 69, 68, 67, 67, 67, 67, 67, 67, 67, 67, 67, 67, 67, 67, 67, 67, 67]"
"Trust","Teilnehmer A hat Ihnen 2 Punkte übermittelt.","Payback","1","undefined","18","0","6","60","1080","331","5","1","916","0","legacy","[11, 21, 31, 41, 51, 61, 71, 81, 91, 101, 111, 121, 131, 141, 151, 161, 171, 181, 191, 201, 211, 221, 231, 241, 251, 261, 271, 281, 291, 301, 311, 321, 331, 341, 351, 361, 371, 381, 391, 401, 411, 421, 431, 441, 451, 461, 471, 481, 491, 501, 511, 521, 531, 541, 551, 561, 571, 581, 591, 601, 611, 621, 631, 641, 651, 661, 671, 681, 691, 701, 711, 721, 731, 741, 751, 761, 771, 781, 791, 801, 811, 821, 831, 841, 851, 861, 871, 881, 891, 901, 911]","1076","1920","[960, 960, 960, 960, 960, 960, 960, 960, 960, 960, 960, 960, 960, 960, 960, 960, 961, 962, 962, 963, 963, 964, 964, 965, 967, 969, 972, 976, 981, 989, 998, 1006, 1018, 1047, 1062, 1078, 1094, 1126, 1138, 1154, 1173, 1209, 1226, 1245, 1260, 1297, 1315, 1337, 1356, 1403, 1425, 1448, 1474, 1516, 1539, 1560, 1580, 1628, 1645, 1661, 1677, 1700, 1710, 1718, 1723, 1731, 1733, 1736, 1736, 1739, 1739, 1740, 1743, 1744, 1746, 1747, 1749, 1752, 1752, 1754, 1755, 1755, 1755, 1755, 1756, 1756, 1756, 1756, 1756, 1756, 1756]","[1010, 1010, 1010, 1010, 1010, 1010, 1010, 1010, 1010, 1010, 1010, 1010, 1010, 1010, 1010, 1010, 1010, 1009, 1006, 1005, 1005, 1003, 1002, 999, 998, 993, 988, 983, 978, 965, 955, 943, 927, 887, 865, 843, 820, 775, 756, 733, 708, 662, 641, 616, 598, 554, 533, 510, 489, 444, 423, 403, 380, 344, 324, 306, 291, 247, 232, 218, 202, 174, 162, 155, 147, 135, 131, 128, 126, 121, 120, 118, 115, 112, 109, 107, 104, 99, 98, 95, 95, 93, 92, 92, 92, 92, 92, 92, 92, 92, 92]"
"Trust","Teilnehmer A hat Ihnen 2 Punkte übermittelt.","Payback","1","undefined","19","0","6","60","1080","231","5","1","1054","0","legacy","[11, 21, 31, 41, 51, 61, 71, 81, 91, 101, 111, 121, 131, 141, 151, 161, 171, 181, 191, 201, 211, 221, 231, 241, 251, 261, 271, 281, 291, 301, 311, 321, 331, 341, 351, 361, 371, 381, 391, 401, 411, 421, 431, 441, 451, 461, 471, 481, 491, 501, 511, 521, 531, 541, 551, 561, 571, 581, 591, 601, 611, 621, 631, 641, 651, 661, 671, 681, 691, 701, 711, 721, 731, 741, 751, 761, 771, 781, 791, 801, 811, 821, 831, 841, 851, 861, 871, 881, 891, 901, 911, 921, 931, 941, 951, 961, 971, 981, 991, 1001, 1011, 1021, 1031, 1041, 1051]","1076","1920","[960, 960, 960, 960, 960, 960, 960, 960, 960, 960, 960, 960, 961, 961, 964, 967, 969, 973, 982, 989, 995, 1003, 1017, 1027, 1036, 1048, 1084, 1112, 1141, 1170, 1244, 1281, 1313, 1344, 1402, 1429, 1457, 1478, 1521, 1541, 1556, 1566, 1581, 1586, 1592, 1596, 1601, 1603, 1604, 1607, 1613, 1615, 1619, 1624, 1632, 1637, 1642, 1645, 1655, 1659, 1665, 1672, 1685, 1692, 1697, 1702, 1709, 1710, 1712, 1714, 1715, 1716, 1716, 1716, 1716, 1716, 1716, 1716, 1719, 1721, 1723, 1728, 1741, 1749, 1756, 1764, 1778, 1786, 1791, 1796, 1803, 1804, 1804, 1805, 1805, 1805, 1805, 1805, 1805, 1805, 1805, 1805, 1805, 1805, 1805]","[1010, 1010, 1010, 1010, 1010, 1010, 1010, 1010, 1010, 1010, 1010, 1010, 1009, 1006, 1001, 996, 993, 986, 975, 968, 960, 950, 931, 919, 909, 891, 848, 816, 788, 763, 706, 674, 646, 620, 570, 547, 524, 504, 473, 457, 445, 435, 414, 407, 397, 389, 377, 371, 366, 357, 341, 334, 323, 313, 292, 280, 272, 266, 243, 233, 223, 211, 193, 185, 178, 171, 163, 162, 161, 158, 156, 156, 156, 155, 155, 155, 155, 155, 152, 150, 145, 139, 123, 112, 105, 95, 79, 70, 63, 55, 46, 44, 44, 43, 43, 43, 43, 43, 43, 43, 43, 43, 43, 43, 43]"
"Trust","Teilnehmer A hat Ihnen 2 Punkte übermittelt.","Payback","1","undefined","20","0","6","60","1080","431","5","1","1172","0","legacy","[11, 21, 31, 41, 51, 61, 71, 81, 91, 101, 111, 121, 131, 141, 151, 161, 171, 181, 191, 201, 211, 221, 231, 241, 251, 261, 271, 281, 291, 301, 311, 321, 331, 341, 351, 361, 371, 381, 391, 401, 411, 421, 431, 441, 451, 461, 471, 481, 491, 501, 511, 521, 531, 541, 551, 561, 571, 581, 591, 601, 611, 621, 631, 641, 651, 661, 671, 681, 691, 701, 711, 721, 731, 741, 751, 761, 771, 781, 791, 801, 811, 821, 831, 841, 851, 861, 871, 881, 891, 901, 911, 921, 931, 941, 951, 961, 971, 981, 991, 1001, 1011, 1021, 1031, 1041, 1051, 1061, 1071, 1081, 1091, 1101, 1111, 1121, 1131, 1141, 1151, 1161, 1171]","1076","1920","[960, 960, 960, 960, 960, 960, 960, 960, 960, 960, 960, 960, 960, 960, 960, 960, 960, 960, 960, 959, 959, 959, 959, 959, 959, 959, 959, 959, 959, 959, 959, 958, 957, 957, 957, 957, 957, 957, 957, 957, 957, 964, 972, 986, 995, 1020, 1033, 1044, 1055, 1089, 1109, 1136, 1161, 1210, 1239, 1266, 1295, 1336, 1357, 1369, 1380, 1403, 1415, 1426, 1439, 1466, 1477, 1487, 1496, 1509, 1515, 1520, 1529, 1543, 1550, 1559, 1567, 1584, 1592, 1603, 1616, 1642, 1656, 1667, 1678, 1698, 1703, 1710, 1713, 1717, 1717, 1717, 1717, 1717, 1718, 1718, 1719, 1721, 1723, 1724, 1725, 1728, 1729, 1731, 1732, 1733, 1733, 1734, 1734, 1734, 1734, 1734, 1734, 1734, 1734, 1734, 1734]","[1010, 1010, 1010, 1010, 1010, 1010, 1010, 1010, 1010, 1010, 1010, 1010, 1010, 1010, 1010, 1010, 1010, 1010, 1010, 1010, 1010, 1010, 1010, 1010, 1010, 1010, 1010, 1010, 1010, 1010, 1010, 1010, 1010, 1010, 1010, 1010, 1010, 1010, 1007, 999, 984, 943, 909, 868, 826, 740, 701, 660, 623, 549, 513, 477, 441, 380, 353, 328, 305, 266, 251, 241, 233, 218, 212, 207, 201, 190, 185, 180, 177, 172, 170, 169, 167, 164, 163, 162, 159, 158, 156, 154, 152, 149, 146, 143, 141, 134, 132, 130, 129, 127, 127, 127, 127, 127, 126, 125, 124, 120, 118, 116, 114, 108, 106, 103, 101, 98, 98, 97, 97, 97, 97, 97, 97, 97, 97, 97, 97]"
"Promise","Wie oft werden Sie die Hälfte zurückgeben?","Promise","1","undefined","20","0","7","60","1080","271","5","1","1042","0","legacy","[11, 21, 31, 41, 51, 61, 71, 81, 91, 101, 111, 121, 131, 141, 151, 161, 171, 181, 191, 201, 211, 221, 231, 241, 251, 261, 271, 281, 291, 301, 311, 321, 331, 341, 351, 361, 371, 381, 391, 401, 411, 421, 431, 441, 451, 461, 471, 481, 491, 501, 511, 521, 531, 541, 551, 561, 571, 581, 591, 601, 611, 621, 631, 641, 651, 661, 671, 681, 691, 701, 711, 721, 731, 741, 751, 761, 771, 781, 791, 801, 811, 821, 831, 841, 851, 861, 871, 881, 891, 901, 911, 921, 931, 941, 951, 961, 971, 981, 991, 1001, 1011, 1021, 1031, 1041]","1076","1920","[960, 960, 960, 960, 960, 960, 960, 960, 960, 960, 960, 960, 960, 960, 960, 960, 963, 965, 967, 971, 981, 987, 997, 1003, 1027, 1044, 1061, 1089, 1153, 1193, 1235, 1274, 1369, 1419, 1469, 1514, 1600, 1640, 1671, 1697, 1750, 1767, 1784, 1800, 1823, 1839, 1846, 1855, 1870, 1877, 1882, 1885, 1891, 1892, 1893, 1893, 1893, 1893, 1893, 1893, 1893, 1891, 1890, 1890, 1887, 1886, 1886, 1885, 1885, 1884, 1884, 1884, 1883, 1882, 1881, 1881, 1880, 1880, 1880, 1880, 1880, 1880, 1880, 1880, 1880, 1880, 1880, 1880, 1880, 1880, 1880, 1880, 1880, 1880, 1880, 1880, 1880, 1880, 1880, 1880, 1880, 1880, 1880, 1880]","[1010, 1010, 1010, 1010, 1010, 1010, 1010, 1010, 1010, 1010, 1010, 1010, 1010, 1010, 1010, 1010, 1008, 1007, 1004, 1002, 993, 989, 982, 977, 959, 947, 936, 915, 871, 837, 810, 778, 708, 674, 641, 609, 544, 515, 487, 466, 419, 398, 380, 360, 328, 308, 295, 281, 253, 238, 226, 214, 193, 184, 174, 166, 152, 145, 140, 135, 127, 120, 118, 114, 106, 103, 100, 98, 90, 87, 84, 83, 76, 75, 73, 72, 71, 71, 71, 71, 71, 71, 71, 71, 71, 71, 71, 71, 71, 71, 71, 71, 71, 71, 71, 71, 71, 71, 71, 71, 71, 71, 71, 71]"
"Trust","Teilnehmer A hat Ihnen 2 Punkte übermittelt.","Payback","1","undefined","21","0","7","60","1080","251","5","1","926","0","legacy","[11, 21, 31, 41, 51, 61, 71, 81, 91, 101, 111, 121, 131, 141, 151, 161, 171, 181, 191, 201, 211, 221, 231, 241, 251, 261, 271, 281, 291, 301, 311, 321, 331, 341, 351, 361, 371, 381, 391, 401, 411, 421, 431, 441, 451, 461, 471, 481, 491, 501, 511, 521, 531, 541, 551, 561, 571, 581, 591, 601, 611, 621, 631, 641, 651, 661, 671, 681, 691, 701, 711, 721, 731, 741, 751, 761, 771, 781, 791, 801, 811, 821, 831, 841, 851, 861, 871, 881, 891, 901, 911, 921]","1076","1920","[960, 960, 960, 960, 960, 960, 960, 960, 960, 960, 960, 960, 961, 961, 964, 966, 968, 971, 977, 981, 984, 987, 997, 1007, 1022, 1042, 1089, 1116, 1143, 1170, 1224, 1255, 1288, 1313, 1369, 1397, 1427, 1454, 1498, 1520, 1539, 1560, 1599, 1615, 1635, 1651, 1681, 1693, 1703, 1712, 1726, 1731, 1736, 1739, 1748, 1748, 1751, 1752, 1753, 1754, 1754, 1754, 1754, 1755, 1756, 1756, 1758, 1758, 1760, 1761, 1762, 1762, 1762, 1762, 1762, 1762, 1762, 1762, 1762, 1762, 1762, 1762, 1762, 1762, 1762, 1762, 1762, 1762, 1762, 1761, 1761, 1761]","[1010, 1010, 1009, 1008, 1008, 1008, 1008, 1008, 1008, 1008, 1008, 1008, 1006, 1005, 1001, 998, 997, 994, 985, 982, 977, 972, 958, 948, 933, 916, 874, 849, 820, 793, 730, 693, 658, 622, 546, 514, 475, 436, 372, 341, 313, 285, 226, 204, 176, 151, 108, 89, 71, 54, 30, 21, 14, 5, 0, 0, 0, 0, 0, 0, 0, 0, 0, 0, 0, 0, 0, 0, 0, 0, 0, 0, 0, 0, 0, 0, 0, 0, 0, 0, 0, 0, 0, 0, 1, 3, 5, 7, 7, 8, 8, 8]"
"Trust","Teilnehmer A hat Ihnen 2 Punkte übermittelt.","Payback","1","undefined","22","0","7","60","1080","451","5","1","1438","0","legacy","[11, 21, 31, 41, 51, 61, 71, 81, 91, 101, 111, 121, 131, 141, 151, 161, 171, 181, 191, 201, 211, 221, 231, 241, 251, 261, 271, 281, 291, 301, 311, 321, 331, 341, 351, 361, 371, 381, 391, 401, 411, 421, 431, 441, 451, 461, 471, 481, 491, 501, 511, 521, 531, 541, 551, 561, 571, 581, 591, 601, 611, 621, 631, 641, 651, 661, 671, 681, 691, 701, 711, 721, 731, 741, 751, 761, 771, 781, 791, 801, 811, 821, 831, 841, 851, 861, 871, 881, 891, 901, 911, 921, 931, 941, 951, 961, 971, 981, 991, 1001, 1011, 1021, 1031, 1041, 1051, 1061, 1071, 1081, 1091, 1101, 1111, 1121, 1131, 1141, 1151, 1161, 1171, 1181, 1191, 1201, 1211, 1221, 1231, 1241, 1251, 1261, 1271, 1281, 1291, 1301, 1311, 1321, 1331, 1341, 1351, 1361, 1371, 1381, 1391, 1401, 1411, 1421, 1431]","1076","1920","[960, 960, 960, 960, 960, 960, 960, 960, 960, 960, 960, 960, 960, 960, 960, 960, 960, 960, 960, 960, 958, 956, 953, 953, 952, 950, 950, 949, 949, 948, 948, 948, 948, 948, 948, 948, 948, 948, 948, 949, 962, 990, 1075, 1118, 1167, 1216, 1296, 1336, 1373, 1405, 1472, 1502, 1533, 1565, 1623, 1653, 1667, 1681, 1695, 1701, 1707, 1712, 1722, 1726, 1733, 1738, 1752, 1760, 1768, 1776, 1791, 1800, 1808, 1818, 1834, 1842, 1848, 1855, 1863, 1865, 1867, 1868, 1868, 1868, 1868, 1868, 1868, 1868, 1868, 1868, 1868, 1868, 1868, 1868, 1867, 1865, 1862, 1858, 1850, 1845, 1843, 1838, 1827, 1823, 1818, 1815, 1807, 1802, 1800, 1799, 1799, 1799, 1799, 1799, 1799, 1799, 1799, 1799, 1799, 1799, 1799, 1799, 1799, 1799, 1799, 1797, 1795, 1794, 1794, 1793, 1791, 1790, 1790, 1790, 1790, 1789, 1789, 1789, 1789, 1789, 1789, 1789, 1789]","[1010, 1010, 1010, 1010, 1010, 1010, 1010, 1010, 1010, 1010, 1010, 1010, 1010, 1010, 1010, 1010, 1010, 1010, 1011, 1012, 1013, 1014, 1016, 1016, 1017, 1017, 1018, 1019, 1020, 1021, 1021, 1021, 1022, 1022, 1022, 1022, 1022, 1022, 1022, 1022, 1022, 1017, 980, 961, 934, 908, 855, 826, 794, 764, 690, 655, 620, 590, 526, 499, 481, 461, 435, 424, 413, 403, 387, 381, 371, 362, 342, 331, 320, 308, 288, 276, 266, 252, 229, 219, 209, 200, 185, 180, 176, 174, 172, 170, 169, 169, 169, 169, 169, 169, 169, 169, 168, 166, 159, 156, 150, 140, 121, 111, 100, 89, 66, 56, 45, 36, 25, 17, 15, 13, 13, 13, 13, 13, 13, 13, 13, 13, 13, 13, 13, 13, 13, 13, 13, 13, 15, 18, 21, 25, 30, 33, 35, 37, 39, 40, 40, 40, 40, 40, 40, 40, 41]"
"Trust","Teilnehmer A hat Ihnen 2 Punkte übermittelt.","Payback","1","undefined","23","0","7","60","1080","291","5","1","1016","0","legacy","[11, 21, 31, 41, 51, 61, 71, 81, 91, 101, 111, 121, 131, 141, 151, 161, 171, 181, 191, 201, 211, 221, 231, 241, 251, 261, 271, 281, 291, 301, 311, 321, 331, 341, 351, 361, 371, 381, 391, 401, 411, 421, 431, 441, 451, 461, 471, 481, 491, 501, 511, 521, 531, 541, 551, 561, 571, 581, 591, 601, 611, 621, 631, 641, 651, 661, 671, 681, 691, 701, 711, 721, 731, 741, 751, 761, 771, 781, 791, 801, 811, 821, 831, 841, 851, 861, 871, 881, 891, 901, 911, 921, 931, 941, 951, 961, 971, 981, 991, 1001, 1011]","1076","1920","[960, 960, 960, 960, 960, 960, 960, 960, 960, 960, 960, 960, 960, 960, 960, 960, 960, 960, 959, 959, 960, 963, 967, 973, 977, 981, 988, 996, 1003, 1009, 1028, 1037, 1054, 1066, 1096, 1114, 1132, 1153, 1207, 1233, 1261, 1295, 1335, 1360, 1375, 1391, 1406, 1440, 1451, 1463, 1478, 1506, 1518, 1531, 1541, 1566, 1578, 1593, 1604, 1626, 1637, 1647, 1659, 1681, 1693, 1701, 1708, 1715, 1715, 1715, 1715, 1712, 1710, 1706, 1704, 1700, 1698, 1697, 1696, 1695, 1695, 1695, 1695, 1695, 1695, 1695, 1695, 1696, 1696, 1696, 1696, 1697, 1697, 1697, 1698, 1698, 1698, 1698, 1698, 1698, 1698]","[1010, 1010, 1010, 1010, 1010, 1010, 1010, 1010, 1010, 1010, 1010, 1011, 1011, 1011, 1011, 1011, 1011, 1011, 1011, 1005, 1001, 996, 991, 981, 974, 968, 955, 946, 936, 927, 903, 889, 871, 856, 818, 797, 774, 746, 694, 674, 650, 628, 597, 580, 566, 552, 538, 516, 508, 497, 485, 461, 450, 439, 429, 407, 396, 382, 373, 353, 339, 329, 317, 290, 275, 265, 253, 231, 221, 212, 203, 184, 174, 167, 158, 146, 139, 136, 132, 126, 124, 120, 118, 113, 113, 112, 110, 110, 110, 108, 107, 106, 105, 105, 104, 104, 103, 103, 103, 103, 103]"
CHF,TotCHF,final_payoff,sum
"7.5","27.5","[5, 5, 0, 5]","15"
