Condition,PromiseStage,Stage,accuracy,avg_rt,count_decision_sequence,count_loop1,count_trial_sequence,font_size,height,init_time,payoff,response,rt,subject_nr,synth_backend,tTrajectory,time_experiment,width,xTrajectory,yTrajectory
"Promise","Wie oft werden Sie die Hälfte zurückgeben?","Promise","1","undefined","NA","0","0","60","1080","391","NA","1","1574","0","legacy","[11, 21, 31, 41, 51, 61, 71, 81, 91, 101, 111, 121, 131, 141, 151, 161, 171, 181, 191, 201, 211, 221, 231, 241, 251, 261, 271, 281, 291, 301, 311, 321, 331, 341, 351, 361, 371, 381, 391, 401, 411, 421, 431, 441, 451, 461, 471, 481, 491, 501, 511, 521, 531, 541, 551, 561, 571, 581, 591, 601, 611, 621, 631, 641, 651, 661, 671, 681, 691, 701, 711, 721, 731, 741, 751, 761, 771, 781, 791, 801, 811, 821, 831, 841, 851, 861, 871, 881, 891, 901, 911, 921, 931, 941, 951, 961, 971, 981, 991, 1001, 1011, 1021, 1031, 1041, 1051, 1061, 1071, 1081, 1091, 1101, 1111, 1121, 1131, 1141, 1151, 1161, 1171, 1181, 1191, 1201, 1211, 1221, 1231, 1241, 1251, 1261, 1271, 1281, 1291, 1301, 1311, 1321, 1331, 1341, 1351, 1361, 1371, 1381, 1391, 1401, 1411, 1421, 1431, 1441, 1451, 1461, 1471, 1481, 1491, 1501, 1511, 1521, 1531, 1541, 1551, 1561, 1571]","1072","1920","[960, 960, 960, 960, 960, 960, 960, 960, 960, 960, 960, 960, 960, 960, 960, 960, 960, 960, 960, 960, 960, 960, 960, 960, 960, 960, 960, 960, 960, 960, 960, 962, 964, 968, 980, 987, 996, 1002, 1020, 1028, 1038, 1048, 1063, 1072, 1080, 1089, 1105, 1117, 1125, 1133, 1148, 1153, 1160, 1167, 1176, 1179, 1184, 1189, 1202, 1210, 1216, 1224, 1243, 1255, 1266, 1276, 1291, 1299, 1304, 1311, 1323, 1333, 1348, 1364, 1405, 1428, 1442, 1455, 1465, 1470, 1475, 1481, 1495, 1502, 1508, 1515, 1524, 1528, 1531, 1535, 1542, 1547, 1553, 1561, 1577, 1589, 1599, 1610, 1624, 1626, 1629, 1633, 1642, 1649, 1658, 1665, 1684, 1692, 1696, 1699, 1700, 1702, 1702, 1702, 1702, 1704, 1704, 1704, 1707, 1708, 1708, 1709, 1709, 1709, 1709, 1709, 1709, 1709, 1709, 1709, 1709, 1709, 1709, 1709, 1709, 1710, 1710, 1711, 1712, 1712, 1712, 1712, 1712, 1712, 1712, 1712, 1712, 1712, 1712, 1712, 1712, 1712, 1712, 1712, 1712, 1712, 1712]","[1010, 1010, 1010, 1010, 1010, 1010, 1010, 1010, 1010, 1010, 1010, 1010, 1010, 1010, 1010, 1010, 1010, 1010, 1010, 1010, 1010, 1010, 1010, 1010, 1010, 1010, 1010, 1010, 1010, 1010, 1010, 1008, 1005, 999, 977, 966, 952, 942, 919, 905, 893, 877, 851, 838, 826, 816, 800, 791, 784, 777, 760, 753, 742, 732, 715, 704, 694, 685, 663, 652, 642, 627, 592, 573, 558, 544, 523, 513, 504, 496, 477, 465, 447, 431, 394, 378, 368, 356, 345, 340, 332, 326, 307, 298, 292, 285, 279, 276, 274, 273, 271, 268, 265, 261, 249, 241, 233, 226, 218, 216, 214, 213, 208, 205, 202, 197, 186, 180, 175, 171, 165, 164, 161, 160, 157, 156, 155, 151, 145, 141, 138, 134, 131, 129, 129, 128, 127, 127, 126, 125, 123, 122, 121, 118, 117, 115, 115, 113, 111, 111, 111, 111, 111, 111, 111, 111, 111, 111, 111, 111, 111, 111, 111, 111, 111, 111, 111]"
Cond,DecisionB,Stage,accuracy,avg_rt,count_decision_sequence,count_loop1,count_trial_sequence,font_size,height,init_time,payoff,response,rt,subject_nr,synth_backend,tTrajectory,time_experiment,width,xTrajectory,yTrajectory
"Trust","Teilnehmer A hat Ihnen 2 Punkte übermittelt.","Payback","1","undefined","0","0","0","60","1080","471","5","1","2060","0","legacy","[11, 21, 31, 41, 51, 61, 71, 81, 91, 101, 111, 121, 131, 141, 151, 161, 171, 181, 191, 201, 211, 221, 231, 241, 251, 261, 271, 281, 291, 301, 311, 321, 331, 341, 351, 361, 371, 381, 391, 401, 411, 421, 431, 441, 451, 461, 471, 481, 491, 501, 511, 521, 531, 541, 551, 561, 571, 581, 591, 601, 611, 621, 631, 641, 651, 661, 671, 681, 691, 701, 711, 721, 731, 741, 751, 761, 771, 781, 791, 801, 811, 821, 831, 841, 851, 861, 871, 881, 891, 901, 911, 921, 931, 941, 951, 961, 971, 981, 991, 1001, 1011, 1021, 1031, 1041, 1051, 1061, 1071, 1081, 1091, 1101, 1111, 1121, 1131, 1141, 1151, 1161, 1171, 1181, 1191, 1201, 1211, 1221, 1231, 1241, 1251, 1261, 1271, 1281, 1291, 1301, 1311, 1321, 1331, 1341, 1351, 1361, 1371, 1381, 1391, 1401, 1411, 1421, 1431, 1441, 1451, 1461, 1471, 1481, 1491, 1501, 1511, 1521, 1531, 1541, 1551, 1561, 1571, 1581, 1591, 1601, 1611, 1621, 1631, 1641, 1651, 1661, 1671, 1681, 1691, 1701, 1711, 1721, 1731, 1741, 1751, 1761, 1771, 1781, 1791, 1801, 1811, 1821, 1831, 1841, 1851, 1861, 1871, 1881, 1891, 1901, 1911, 1921, 1931, 1941, 1951, 1961, 1971, 1981, 1991, 2001, 2011, 2021, 2031, 2041, 2051]","1072","1920","[960, 960, 960, 960, 960, 960, 960, 960, 960, 960, 960, 960, 960, 960, 960, 960, 960, 960, 960, 960, 960, 960, 960, 960, 960, 960, 960, 960, 960, 960, 960, 960, 960, 960, 960, 960, 960, 960, 960, 961, 961, 964, 965, 966, 967, 970, 971, 972, 974, 978, 981, 983, 986, 994, 997, 1003, 1007, 1012, 1014, 1018, 1023, 1034, 1039, 1046, 1051, 1065, 1071, 1076, 1081, 1091, 1093, 1099, 1104, 1117, 1124, 1133, 1137, 1145, 1149, 1154, 1156, 1164, 1168, 1172, 1176, 1180, 1182, 1184, 1185, 1188, 1189, 1190, 1191, 1197, 1201, 1204, 1208, 1212, 1213, 1217, 1219, 1228, 1232, 1235, 1235, 1240, 1242, 1243, 1245, 1248, 1249, 1251, 1251, 1253, 1254, 1255, 1256, 1257, 1257, 1257, 1257, 1258, 1258, 1259, 1259, 1260, 1262, 1262, 1264, 1268, 1270, 1272, 1274, 1280, 1283, 1289, 1295, 1314, 1322, 1330, 1336, 1352, 1358, 1367, 1375, 1392, 1403, 1411, 1420, 1442, 1451, 1461, 1471, 1487, 1494, 1499, 1504, 1514, 1521, 1527, 1533, 1545, 1547, 1550, 1554, 1562, 1567, 1570, 1574, 1580, 1582, 1590, 1595, 1607, 1614, 1621, 1627, 1638, 1642, 1648, 1650, 1653, 1655, 1658, 1659, 1662, 1663, 1663, 1664, 1664, 1664, 1664, 1664, 1664, 1664, 1664, 1664, 1664, 1664, 1664, 1664, 1664, 1664, 1664, 1664]","[1010, 1010, 1010, 1010, 1010, 1010, 1010, 1010, 1010, 1010, 1010, 1010, 1010, 1010, 1010, 1010, 1010, 1010, 1010, 1010, 1010, 1010, 1010, 1010, 1010, 1010, 1010, 1010, 1010, 1010, 1010, 1010, 1010, 1010, 1010, 1010, 1010, 1010, 1008, 1006, 1003, 993, 985, 975, 967, 946, 939, 930, 922, 905, 896, 887, 877, 856, 848, 839, 833, 825, 822, 818, 812, 798, 789, 779, 771, 754, 747, 742, 738, 730, 728, 723, 718, 705, 697, 688, 681, 671, 668, 662, 658, 649, 644, 639, 635, 629, 626, 625, 624, 621, 621, 619, 618, 612, 609, 607, 603, 599, 598, 594, 592, 584, 582, 579, 579, 575, 573, 572, 571, 568, 566, 565, 564, 562, 559, 558, 557, 555, 555, 554, 553, 552, 551, 551, 550, 547, 545, 544, 542, 539, 535, 534, 530, 523, 517, 511, 504, 482, 473, 466, 457, 441, 434, 425, 414, 394, 382, 373, 364, 349, 342, 334, 328, 312, 304, 298, 291, 278, 272, 264, 258, 245, 243, 239, 234, 226, 221, 217, 215, 208, 206, 203, 198, 186, 181, 174, 170, 160, 156, 151, 149, 145, 143, 139, 138, 133, 132, 132, 131, 131, 131, 131, 131, 131, 131, 131, 131, 131, 131, 131, 131, 131, 131, 131, 131]"
"NoTrust","Teilnehmer A hat Ihnen keine 2 Punkte übermittelt.","Payback","1","undefined","1","0","0","60","1080","471","0","1","2060","0","legacy","[11, 21, 31, 41, 51, 61, 71, 81, 91, 101, 111, 121, 131, 141, 151, 161, 171, 181, 191, 201, 211, 221, 231, 241, 251, 261, 271, 281, 291, 301, 311, 321, 331, 341, 351, 361, 371, 381, 391, 401, 411, 421, 431, 441, 451, 461, 471, 481, 491, 501, 511, 521, 531, 541, 551, 561, 571, 581, 591, 601, 611, 621, 631, 641, 651, 661, 671, 681, 691, 701, 711, 721, 731, 741, 751, 761, 771, 781, 791, 801, 811, 821, 831, 841, 851, 861, 871, 881, 891, 901, 911, 921, 931, 941, 951, 961, 971, 981, 991, 1001, 1011, 1021, 1031, 1041, 1051, 1061, 1071, 1081, 1091, 1101, 1111, 1121, 1131, 1141, 1151, 1161, 1171, 1181, 1191, 1201, 1211, 1221, 1231, 1241, 1251, 1261, 1271, 1281, 1291, 1301, 1311, 1321, 1331, 1341, 1351, 1361, 1371, 1381, 1391, 1401, 1411, 1421, 1431, 1441, 1451, 1461, 1471, 1481, 1491, 1501, 1511, 1521, 1531, 1541, 1551, 1561, 1571, 1581, 1591, 1601, 1611, 1621, 1631, 1641, 1651, 1661, 1671, 1681, 1691, 1701, 1711, 1721, 1731, 1741, 1751, 1761, 1771, 1781, 1791, 1801, 1811, 1821, 1831, 1841, 1851, 1861, 1871, 1881, 1891, 1901, 1911, 1921, 1931, 1941, 1951, 1961, 1971, 1981, 1991, 2001, 2011, 2021, 2031, 2041, 2051]","1072","1920","[960, 960, 960, 960, 960, 960, 960, 960, 960, 960, 960, 960, 960, 960, 960, 960, 960, 960, 960, 960, 960, 960, 960, 960, 960, 960, 960, 960, 960, 960, 960, 960, 960, 960, 960, 960, 960, 960, 960, 961, 961, 964, 965, 966, 967, 970, 971, 972, 974, 978, 981, 983, 986, 994, 997, 1003, 1007, 1012, 1014, 1018, 1023, 1034, 1039, 1046, 1051, 1065, 1071, 1076, 1081, 1091, 1093, 1099, 1104, 1117, 1124, 1133, 1137, 1145, 1149, 1154, 1156, 1164, 1168, 1172, 1176, 1180, 1182, 1184, 1185, 1188, 1189, 1190, 1191, 1197, 1201, 1204, 1208, 1212, 1213, 1217, 1219, 1228, 1232, 1235, 1235, 1240, 1242, 1243, 1245, 1248, 1249, 1251, 1251, 1253, 1254, 1255, 1256, 1257, 1257, 1257, 1257, 1258, 1258, 1259, 1259, 1260, 1262, 1262, 1264, 1268, 1270, 1272, 1274, 1280, 1283, 1289, 1295, 1314, 1322, 1330, 1336, 1352, 1358, 1367, 1375, 1392, 1403, 1411, 1420, 1442, 1451, 1461, 1471, 1487, 1494, 1499, 1504, 1514, 1521, 1527, 1533, 1545, 1547, 1550, 1554, 1562, 1567, 1570, 1574, 1580, 1582, 1590, 1595, 1607, 1614, 1621, 1627, 1638, 1642, 1648, 1650, 1653, 1655, 1658, 1659, 1662, 1663, 1663, 1664, 1664, 1664, 1664, 1664, 1664, 1664, 1664, 1664, 1664, 1664, 1664, 1664, 1664, 1664, 1664, 1664]","[1010, 1010, 1010, 1010, 1010, 1010, 1010, 1010, 1010, 1010, 1010, 1010, 1010, 1010, 1010, 1010, 1010, 1010, 1010, 1010, 1010, 1010, 1010, 1010, 1010, 1010, 1010, 1010, 1010, 1010, 1010, 1010, 1010, 1010, 1010, 1010, 1010, 1010, 1008, 1006, 1003, 993, 985, 975, 967, 946, 939, 930, 922, 905, 896, 887, 877, 856, 848, 839, 833, 825, 822, 818, 812, 798, 789, 779, 771, 754, 747, 742, 738, 730, 728, 723, 718, 705, 697, 688, 681, 671, 668, 662, 658, 649, 644, 639, 635, 629, 626, 625, 624, 621, 621, 619, 618, 612, 609, 607, 603, 599, 598, 594, 592, 584, 582, 579, 579, 575, 573, 572, 571, 568, 566, 565, 564, 562, 559, 558, 557, 555, 555, 554, 553, 552, 551, 551, 550, 547, 545, 544, 542, 539, 535, 534, 530, 523, 517, 511, 504, 482, 473, 466, 457, 441, 434, 425, 414, 394, 382, 373, 364, 349, 342, 334, 328, 312, 304, 298, 291, 278, 272, 264, 258, 245, 243, 239, 234, 226, 221, 217, 215, 208, 206, 203, 198, 186, 181, 174, 170, 160, 156, 151, 149, 145, 143, 139, 138, 133, 132, 132, 131, 131, 131, 131, 131, 131, 131, 131, 131, 131, 131, 131, 131, 131, 131, 131, 131]"
"Trust","Teilnehmer A hat Ihnen 2 Punkte übermittelt.","Payback","0","undefined","2","0","0","60","1080","491","10","2","2135","0","legacy","[11, 21, 31, 41, 51, 61, 71, 81, 91, 101, 111, 121, 131, 141, 151, 161, 171, 181, 191, 201, 211, 221, 231, 241, 251, 261, 271, 281, 291, 301, 311, 321, 331, 341, 351, 361, 371, 381, 391, 401, 411, 421, 431, 441, 451, 461, 471, 481, 491, 501, 511, 521, 531, 541, 551, 561, 571, 581, 591, 601, 611, 621, 631, 641, 651, 661, 671, 681, 691, 701, 711, 721, 731, 741, 751, 761, 771, 781, 791, 801, 811, 821, 831, 841, 851, 861, 871, 881, 891, 901, 911, 921, 931, 941, 951, 961, 971, 981, 991, 1001, 1011, 1021, 1031, 1041, 1051, 1061, 1071, 1081, 1091, 1101, 1111, 1121, 1131, 1141, 1151, 1161, 1171, 1181, 1191, 1201, 1211, 1221, 1231, 1241, 1251, 1261, 1271, 1281, 1291, 1301, 1311, 1321, 1331, 1341, 1351, 1361, 1371, 1381, 1391, 1401, 1411, 1421, 1431, 1441, 1451, 1461, 1471, 1481, 1491, 1501, 1511, 1521, 1531, 1541, 1551, 1561, 1571, 1581, 1591, 1601, 1611, 1621, 1631, 1641, 1651, 1661, 1671, 1681, 1691, 1701, 1711, 1721, 1731, 1741, 1751, 1761, 1771, 1781, 1791, 1801, 1811, 1821, 1831, 1841, 1851, 1861, 1871, 1881, 1891, 1901, 1911, 1921, 1931, 1941, 1951, 1961, 1971, 1981, 1991, 2001, 2011, 2021, 2031, 2041, 2051, 2061, 2071, 2081, 2091, 2101, 2111, 2121, 2131]","1072","1920","[960, 960, 960, 960, 960, 960, 960, 960, 960, 960, 960, 960, 960, 960, 960, 960, 960, 960, 960, 960, 960, 960, 960, 960, 960, 960, 960, 960, 960, 960, 960, 960, 960, 960, 960, 960, 960, 960, 960, 960, 960, 960, 960, 960, 960, 961, 963, 964, 965, 966, 967, 970, 972, 975, 978, 983, 985, 988, 990, 993, 996, 998, 1001, 1008, 1010, 1014, 1017, 1020, 1022, 1023, 1024, 1025, 1026, 1026, 1027, 1028, 1030, 1031, 1036, 1043, 1047, 1052, 1055, 1058, 1061, 1061, 1062, 1064, 1064, 1064, 1064, 1064, 1064, 1065, 1065, 1065, 1065, 1065, 1065, 1065, 1065, 1065, 1065, 1065, 1065, 1065, 1065, 1065, 1065, 1065, 1065, 1065, 1065, 1065, 1065, 1065, 1065, 1065, 1065, 1067, 1074, 1084, 1097, 1122, 1130, 1140, 1149, 1164, 1169, 1177, 1186, 1208, 1227, 1243, 1263, 1305, 1319, 1327, 1333, 1334, 1334, 1331, 1324, 1294, 1277, 1258, 1212, 1098, 1017, 921, 820, 597, 491, 390, 298, 108, 21, 0, 0, 0, 0, 0, 0, 0, 0, 0, 0, 0, 0, 0, 0, 0, 0, 0, 0, 0, 1, 3, 3, 8, 13, 17, 22, 30, 30, 31, 32, 33, 33, 33, 33, 33, 33, 33, 33, 33, 34, 34, 36, 42, 42, 44, 46, 47, 47, 47, 47, 47, 47, 47, 47, 47, 47]","[1010, 1010, 1010, 1010, 1010, 1010, 1010, 1010, 1010, 1010, 1010, 1010, 1010, 1010, 1010, 1010, 1010, 1010, 1010, 1010, 1010, 1010, 1010, 1010, 1010, 1010, 1010, 1010, 1010, 1010, 1010, 1010, 1010, 1010, 1010, 1010, 1010, 1010, 1007, 996, 992, 984, 977, 962, 958, 953, 948, 943, 937, 932, 922, 902, 891, 878, 866, 848, 841, 834, 829, 820, 815, 809, 803, 784, 779, 771, 761, 747, 742, 739, 738, 735, 734, 733, 731, 728, 724, 719, 710, 691, 684, 676, 670, 663, 661, 659, 657, 655, 655, 655, 655, 655, 655, 655, 655, 655, 655, 655, 655, 655, 655, 655, 655, 655, 655, 655, 655, 655, 655, 655, 655, 655, 655, 655, 655, 655, 655, 655, 655, 650, 645, 638, 628, 610, 603, 593, 587, 576, 571, 566, 559, 539, 520, 504, 481, 440, 425, 415, 403, 388, 381, 372, 365, 351, 347, 342, 336, 320, 309, 293, 277, 253, 240, 224, 212, 194, 183, 174, 161, 137, 126, 119, 117, 114, 113, 111, 110, 105, 105, 104, 104, 104, 104, 104, 104, 102, 100, 99, 99, 96, 94, 94, 92, 90, 90, 90, 89, 89, 89, 89, 89, 89, 89, 89, 89, 89, 89, 88, 88, 87, 87, 87, 87, 87, 87, 87, 87, 87, 87, 87, 87, 87, 87]"
"Promise","Wie oft werden Sie die Hälfte zurückgeben?","Promise","1","undefined","2","0","1","60","1080","351","10","1","1889","0","legacy","[11, 21, 31, 41, 51, 61, 71, 81, 91, 101, 111, 121, 131, 141, 151, 161, 171, 181, 191, 201, 211, 221, 231, 241, 251, 261, 271, 281, 291, 301, 311, 321, 331, 341, 351, 361, 371, 381, 391, 401, 411, 421, 431, 441, 451, 461, 471, 481, 491, 501, 511, 521, 531, 541, 551, 561, 571, 581, 591, 601, 611, 621, 631, 641, 651, 661, 671, 681, 691, 701, 711, 721, 731, 741, 751, 761, 771, 781, 791, 801, 811, 821, 831, 841, 851, 861, 871, 881, 891, 901, 911, 921, 931, 941, 951, 961, 971, 981, 991, 1001, 1011, 1021, 1031, 1041, 1051, 1061, 1071, 1081, 1091, 1101, 1111, 1121, 1131, 1141, 1151, 1161, 1171, 1181, 1191, 1201, 1211, 1221, 1231, 1241, 1251, 1261, 1271, 1281, 1291, 1301, 1311, 1321, 1331, 1341, 1351, 1361, 1371, 1381, 1391, 1401, 1411, 1421, 1431, 1441, 1451, 1461, 1471, 1481, 1491, 1501, 1511, 1521, 1531, 1541, 1551, 1561, 1571, 1581, 1591, 1601, 1611, 1621, 1631, 1641, 1651, 1661, 1671, 1681, 1691, 1701, 1711, 1721, 1731, 1741, 1751, 1761, 1771, 1781, 1791, 1801, 1811, 1821, 1831, 1841, 1851, 1861, 1871, 1881]","1072","1920","[960, 960, 960, 960, 960, 960, 960, 960, 960, 960, 960, 960, 960, 960, 960, 960, 960, 960, 960, 960, 960, 960, 960, 960, 964, 966, 968, 970, 973, 976, 978, 980, 988, 990, 994, 998, 1004, 1007, 1010, 1014, 1019, 1020, 1022, 1027, 1035, 1039, 1043, 1050, 1059, 1065, 1069, 1073, 1085, 1092, 1099, 1107, 1123, 1128, 1138, 1146, 1163, 1170, 1177, 1190, 1221, 1243, 1267, 1283, 1329, 1347, 1365, 1378, 1406, 1416, 1434, 1455, 1496, 1514, 1530, 1544, 1564, 1574, 1582, 1589, 1604, 1614, 1621, 1631, 1644, 1647, 1651, 1655, 1658, 1660, 1662, 1664, 1668, 1670, 1671, 1671, 1671, 1671, 1671, 1671, 1671, 1671, 1671, 1672, 1672, 1672, 1672, 1672, 1672, 1672, 1672, 1673, 1673, 1673, 1673, 1673, 1673, 1673, 1673, 1673, 1673, 1673, 1673, 1673, 1673, 1673, 1673, 1673, 1673, 1673, 1673, 1673, 1673, 1673, 1673, 1673, 1673, 1673, 1673, 1673, 1673, 1673, 1673, 1673, 1673, 1673, 1673, 1673, 1673, 1673, 1673, 1673, 1673, 1673, 1673, 1673, 1673, 1673, 1673, 1673, 1673, 1673, 1673, 1673, 1673, 1673, 1673, 1673, 1673, 1673, 1673, 1673, 1673, 1673, 1673, 1673, 1673, 1673, 1673, 1673, 1673, 1673, 1673, 1673]","[1010, 1010, 1010, 1010, 1010, 1010, 1010, 1010, 1010, 1010, 1010, 1010, 1010, 1010, 1010, 1010, 1010, 1010, 1010, 1010, 1010, 1010, 1010, 1010, 1002, 999, 997, 993, 985, 979, 975, 969, 954, 945, 937, 927, 911, 904, 896, 888, 871, 862, 853, 844, 821, 809, 796, 783, 765, 754, 747, 740, 723, 713, 703, 691, 665, 655, 641, 630, 600, 587, 574, 552, 512, 485, 457, 432, 386, 369, 355, 341, 316, 307, 293, 274, 241, 224, 209, 193, 172, 162, 157, 150, 142, 138, 134, 130, 121, 118, 114, 110, 105, 102, 101, 99, 98, 97, 97, 97, 97, 97, 97, 97, 97, 97, 97, 97, 97, 97, 97, 97, 97, 97, 97, 96, 96, 96, 96, 96, 96, 96, 96, 96, 96, 96, 96, 96, 96, 96, 96, 96, 96, 96, 96, 96, 96, 96, 96, 96, 96, 96, 96, 96, 96, 96, 96, 96, 96, 96, 96, 96, 96, 96, 96, 96, 96, 96, 96, 96, 96, 96, 96, 96, 96, 96, 96, 96, 96, 96, 96, 96, 96, 96, 96, 96, 96, 96, 96, 96, 96, 96, 96, 96, 96, 96, 96, 96]"
"Trust","Teilnehmer A hat Ihnen 2 Punkte übermittelt.","Payback","1","undefined","3","0","1","60","1080","481","5","1","2030","0","legacy","[11, 21, 31, 41, 51, 61, 71, 81, 91, 101, 111, 121, 131, 141, 151, 161, 171, 181, 191, 201, 211, 221, 231, 241, 251, 261, 271, 281, 291, 301, 311, 321, 331, 341, 351, 361, 371, 381, 391, 401, 411, 421, 431, 441, 451, 461, 471, 481, 491, 501, 511, 521, 531, 541, 551, 561, 571, 581, 591, 601, 611, 621, 631, 641, 651, 661, 671, 681, 691, 701, 711, 721, 731, 741, 751, 761, 771, 781, 791, 801, 811, 821, 831, 841, 851, 861, 871, 881, 891, 901, 911, 921, 931, 941, 951, 961, 971, 981, 991, 1001, 1011, 1021, 1031, 1041, 1051, 1061, 1071, 1081, 1091, 1101, 1111, 1121, 1131, 1141, 1151, 1161, 1171, 1181, 1191, 1201, 1211, 1221, 1231, 1241, 1251, 1261, 1271, 1281, 1291, 1301, 1311, 1321, 1331, 1341, 1351, 1361, 1371, 1381, 1391, 1401, 1411, 1421, 1431, 1441, 1451, 1461, 1471, 1481, 1491, 1501, 1511, 1521, 1531, 1541, 1551, 1561, 1571, 1581, 1591, 1601, 1611, 1621, 1631, 1641, 1651, 1661, 1671, 1681, 1691, 1701, 1711, 1721, 1731, 1741, 1751, 1761, 1771, 1781, 1791, 1801, 1811, 1821, 1831, 1841, 1851, 1861, 1871, 1881, 1891, 1901, 1911, 1921, 1931, 1941, 1951, 1961, 1971, 1981, 1991, 2001, 2011, 2021]","1072","1920","[960, 960, 960, 960, 960, 960, 960, 960, 960, 960, 960, 960, 960, 960, 960, 960, 960, 960, 960, 960, 960, 960, 960, 960, 960, 960, 960, 960, 960, 960, 960, 960, 963, 963, 964, 965, 966, 967, 969, 971, 971, 972, 977, 980, 984, 990, 1006, 1013, 1019, 1026, 1034, 1037, 1038, 1041, 1043, 1044, 1046, 1047, 1051, 1052, 1054, 1056, 1061, 1064, 1066, 1069, 1075, 1076, 1079, 1081, 1085, 1087, 1090, 1093, 1096, 1100, 1103, 1104, 1109, 1111, 1114, 1119, 1132, 1142, 1152, 1162, 1190, 1202, 1215, 1224, 1245, 1254, 1268, 1289, 1334, 1358, 1376, 1388, 1427, 1439, 1447, 1459, 1479, 1493, 1506, 1523, 1562, 1579, 1597, 1607, 1621, 1627, 1635, 1643, 1663, 1674, 1683, 1698, 1728, 1743, 1752, 1761, 1774, 1779, 1784, 1786, 1794, 1799, 1799, 1800, 1800, 1800, 1801, 1801, 1801, 1801, 1801, 1801, 1801, 1801, 1801, 1801, 1801, 1801, 1801, 1801, 1801, 1801, 1801, 1801, 1801, 1801, 1801, 1801, 1801, 1801, 1801, 1801, 1801, 1801, 1801, 1801, 1801, 1801, 1801, 1801, 1801, 1801, 1801, 1801, 1801, 1801, 1801, 1801, 1801, 1801, 1801, 1801, 1801, 1801, 1801, 1801, 1801, 1801, 1801, 1801, 1801, 1801, 1801, 1801, 1801, 1801, 1801, 1801, 1801, 1801, 1801, 1801, 1801, 1801, 1801, 1801]","[1010, 1010, 1010, 1010, 1010, 1010, 1010, 1010, 1010, 1010, 1010, 1010, 1010, 1010, 1010, 1010, 1010, 1010, 1010, 1010, 1010, 1010, 1010, 1010, 1010, 1010, 1010, 1010, 1010, 1010, 1008, 1007, 1002, 1002, 999, 998, 996, 996, 991, 989, 986, 982, 970, 962, 957, 951, 944, 939, 937, 933, 929, 926, 925, 922, 920, 918, 915, 913, 907, 904, 900, 898, 888, 883, 877, 873, 866, 865, 862, 859, 852, 847, 841, 835, 826, 819, 813, 804, 789, 781, 770, 760, 732, 716, 695, 679, 645, 636, 626, 618, 601, 592, 579, 559, 518, 494, 479, 468, 436, 424, 416, 407, 385, 374, 363, 348, 316, 301, 286, 276, 261, 252, 243, 235, 216, 208, 199, 190, 170, 159, 153, 146, 137, 134, 130, 127, 122, 118, 118, 116, 116, 115, 113, 113, 111, 110, 110, 109, 109, 109, 109, 109, 109, 109, 109, 109, 109, 109, 109, 109, 109, 109, 109, 109, 108, 108, 108, 107, 107, 107, 107, 107, 107, 107, 107, 107, 107, 107, 107, 107, 107, 107, 107, 107, 107, 107, 107, 107, 107, 107, 107, 107, 107, 107, 107, 107, 107, 107, 107, 107, 107, 107, 107, 107, 107, 107, 107, 107, 107, 107, 107, 107]"
"Trust","Teilnehmer A hat Ihnen 2 Punkte übermittelt.","Payback","1","undefined","4","0","1","60","1080","441","5","1","1546","0","legacy","[11, 21, 31, 41, 51, 61, 71, 81, 91, 101, 111, 121, 131, 141, 151, 161, 171, 181, 191, 201, 211, 221, 231, 241, 251, 261, 271, 281, 291, 301, 311, 321, 331, 341, 351, 361, 371, 381, 391, 401, 411, 421, 431, 441, 451, 461, 471, 481, 491, 501, 511, 521, 531, 541, 551, 561, 571, 581, 591, 601, 611, 621, 631, 641, 651, 661, 671, 681, 691, 701, 711, 721, 731, 741, 751, 761, 771, 781, 791, 801, 811, 821, 831, 841, 851, 861, 871, 881, 891, 901, 911, 921, 931, 941, 951, 961, 971, 981, 991, 1001, 1011, 1021, 1031, 1041, 1051, 1061, 1071, 1081, 1091, 1101, 1111, 1121, 1131, 1141, 1151, 1161, 1171, 1181, 1191, 1201, 1211, 1221, 1231, 1241, 1251, 1261, 1271, 1281, 1291, 1301, 1311, 1321, 1331, 1341, 1351, 1361, 1371, 1381, 1391, 1401, 1411, 1421, 1431, 1441, 1451, 1461, 1471, 1481, 1491, 1501, 1511, 1521, 1531, 1541]","1072","1920","[960, 960, 960, 960, 960, 960, 960, 960, 960, 960, 960, 960, 960, 960, 960, 960, 960, 960, 960, 960, 960, 960, 960, 960, 960, 960, 960, 960, 960, 960, 960, 960, 960, 961, 962, 964, 968, 971, 974, 980, 992, 999, 1006, 1011, 1025, 1031, 1038, 1043, 1052, 1056, 1059, 1062, 1068, 1070, 1074, 1076, 1082, 1084, 1089, 1094, 1102, 1107, 1112, 1114, 1121, 1125, 1130, 1135, 1150, 1158, 1169, 1175, 1193, 1201, 1209, 1218, 1236, 1245, 1254, 1260, 1283, 1291, 1298, 1308, 1325, 1333, 1339, 1348, 1361, 1368, 1374, 1383, 1396, 1402, 1410, 1418, 1432, 1441, 1450, 1459, 1473, 1479, 1484, 1489, 1500, 1504, 1507, 1510, 1515, 1520, 1524, 1529, 1536, 1539, 1542, 1544, 1549, 1550, 1555, 1558, 1568, 1572, 1578, 1582, 1588, 1589, 1591, 1593, 1602, 1609, 1619, 1633, 1653, 1662, 1667, 1670, 1673, 1673, 1673, 1674, 1675, 1676, 1678, 1679, 1681, 1681, 1682, 1682, 1683, 1683, 1683, 1683, 1683, 1683]","[1010, 1010, 1010, 1010, 1010, 1010, 1010, 1010, 1010, 1010, 1010, 1010, 1010, 1010, 1010, 1010, 1010, 1010, 1010, 1010, 1010, 1010, 1010, 1010, 1010, 1010, 1010, 1010, 1010, 1010, 1010, 1010, 1010, 1009, 1008, 1006, 999, 993, 987, 980, 963, 953, 944, 934, 911, 902, 891, 880, 866, 859, 855, 849, 841, 838, 834, 832, 824, 819, 813, 806, 791, 783, 773, 766, 751, 745, 737, 730, 711, 700, 688, 681, 657, 646, 634, 621, 591, 575, 561, 548, 518, 506, 497, 485, 466, 457, 448, 439, 424, 418, 411, 403, 392, 385, 378, 369, 352, 342, 334, 326, 313, 308, 303, 298, 287, 281, 273, 269, 260, 255, 251, 248, 241, 240, 237, 236, 232, 231, 227, 225, 218, 214, 210, 207, 200, 197, 195, 191, 183, 175, 167, 158, 146, 142, 138, 137, 135, 134, 134, 134, 133, 130, 129, 127, 123, 122, 121, 121, 119, 119, 119, 119, 119, 119]"
"Trust","Teilnehmer A hat Ihnen 2 Punkte übermittelt.","Payback","1","undefined","5","0","1","60","1080","311","5","1","2341","0","legacy","[11, 21, 31, 41, 51, 61, 71, 81, 91, 101, 111, 121, 131, 141, 151, 161, 171, 181, 191, 201, 211, 221, 231, 241, 251, 261, 271, 281, 291, 301, 311, 321, 331, 341, 351, 361, 371, 381, 391, 401, 411, 421, 431, 441, 451, 461, 471, 481, 491, 501, 511, 521, 531, 541, 551, 561, 571, 581, 591, 601, 611, 621, 631, 641, 651, 661, 671, 681, 691, 701, 711, 721, 731, 741, 751, 761, 771, 781, 791, 801, 811, 821, 831, 841, 851, 861, 871, 881, 891, 901, 911, 921, 931, 941, 951, 961, 971, 981, 991, 1001, 1011, 1021, 1031, 1041, 1051, 1061, 1071, 1081, 1091, 1101, 1111, 1121, 1131, 1141, 1151, 1161, 1171, 1181, 1191, 1201, 1211, 1221, 1231, 1241, 1251, 1261, 1271, 1281, 1291, 1301, 1311, 1321, 1331, 1341, 1351, 1361, 1371, 1381, 1391, 1401, 1411, 1421, 1431, 1441, 1451, 1461, 1471, 1481, 1491, 1501, 1511, 1521, 1531, 1541, 1551, 1561, 1571, 1581, 1591, 1601, 1611, 1621, 1631, 1641, 1651, 1661, 1671, 1681, 1691, 1701, 1711, 1721, 1731, 1741, 1751, 1761, 1771, 1781, 1791, 1801, 1811, 1821, 1831, 1841, 1851, 1861, 1871, 1881, 1891, 1901, 1911, 1921, 1931, 1941, 1951, 1961, 1971, 1981, 1991, 2001, 2011, 2021, 2031, 2041, 2051, 2061, 2071, 2081, 2091, 2101, 2111, 2121, 2131, 2141, 2151, 2161, 2171, 2181, 2191, 2201, 2211, 2221, 2231, 2241, 2251, 2261, 2271, 2281, 2291, 2301, 2311, 2321, 2331, 2341]","1072","1920","[960, 960, 960, 960, 960, 960, 960, 960, 960, 960, 960, 960, 960, 960, 960, 960, 960, 960, 960, 960, 960, 961, 963, 965, 966, 967, 975, 981, 986, 991, 1003, 1010, 1016, 1024, 1043, 1051, 1060, 1068, 1083, 1090, 1095, 1102, 1113, 1121, 1129, 1136, 1147, 1152, 1157, 1162, 1169, 1175, 1179, 1185, 1199, 1208, 1221, 1231, 1253, 1265, 1278, 1286, 1302, 1308, 1313, 1316, 1326, 1332, 1337, 1343, 1351, 1354, 1359, 1363, 1374, 1380, 1387, 1395, 1408, 1417, 1423, 1430, 1441, 1447, 1453, 1461, 1474, 1481, 1490, 1500, 1520, 1528, 1535, 1545, 1556, 1559, 1562, 1565, 1572, 1578, 1582, 1588, 1597, 1603, 1606, 1612, 1624, 1627, 1633, 1642, 1653, 1656, 1660, 1664, 1671, 1671, 1674, 1677, 1679, 1681, 1681, 1683, 1684, 1684, 1686, 1687, 1689, 1691, 1691, 1692, 1694, 1694, 1694, 1694, 1696, 1697, 1697, 1697, 1699, 1699, 1701, 1701, 1702, 1703, 1704, 1704, 1705, 1705, 1706, 1706, 1707, 1707, 1708, 1708, 1709, 1710, 1710, 1711, 1711, 1712, 1713, 1714, 1716, 1717, 1719, 1719, 1720, 1721, 1721, 1721, 1721, 1721, 1721, 1721, 1721, 1721, 1721, 1721, 1721, 1721, 1721, 1721, 1721, 1721, 1721, 1721, 1721, 1721, 1721, 1721, 1721, 1721, 1721, 1721, 1721, 1721, 1721, 1721, 1721, 1721, 1721, 1721, 1721, 1721, 1721, 1721, 1721, 1721, 1721, 1721, 1721, 1721, 1721, 1721, 1721, 1721, 1721, 1721, 1721, 1721, 1721, 1721, 1721, 1721, 1721, 1721, 1721, 1721, 1721, 1721, 1721, 1721, 1721, 1721]","[1010, 1010, 1010, 1010, 1010, 1010, 1010, 1010, 1010, 1010, 1010, 1010, 1010, 1010, 1010, 1010, 1008, 1008, 1005, 1005, 1004, 1002, 1000, 996, 995, 992, 981, 973, 965, 958, 935, 925, 916, 905, 883, 874, 863, 854, 832, 822, 813, 806, 797, 793, 791, 787, 778, 774, 767, 761, 747, 735, 725, 714, 688, 674, 656, 644, 619, 607, 592, 582, 558, 548, 537, 524, 499, 488, 478, 468, 454, 447, 442, 436, 422, 414, 406, 398, 378, 368, 359, 349, 330, 321, 313, 301, 283, 276, 268, 261, 245, 239, 234, 229, 223, 221, 217, 215, 208, 203, 200, 195, 187, 183, 181, 177, 169, 166, 162, 156, 148, 146, 142, 138, 134, 134, 133, 132, 131, 130, 129, 128, 127, 126, 125, 124, 121, 120, 120, 119, 118, 118, 118, 118, 117, 116, 116, 116, 116, 114, 114, 114, 112, 112, 112, 111, 111, 111, 109, 109, 108, 107, 106, 106, 105, 104, 104, 103, 102, 101, 99, 99, 97, 95, 95, 95, 94, 93, 93, 93, 93, 93, 93, 93, 93, 93, 93, 93, 93, 93, 93, 93, 93, 93, 93, 93, 93, 93, 93, 93, 93, 93, 93, 93, 93, 93, 93, 93, 93, 93, 93, 93, 93, 93, 93, 93, 93, 93, 93, 93, 93, 93, 93, 93, 93, 93, 93, 93, 93, 93, 93, 93, 93, 93, 93, 93, 93, 93, 93, 93, 93, 93, 93, 93]"
"Promise","Wie oft werden Sie die Hälfte zurückgeben?","Promise","0","undefined","5","0","2","60","1080","221","5","2","1044","0","legacy","[11, 21, 31, 41, 51, 61, 71, 81, 91, 101, 111, 121, 131, 141, 151, 161, 171, 181, 191, 201, 211, 221, 231, 241, 251, 261, 271, 281, 291, 301, 311, 321, 331, 341, 351, 361, 371, 381, 391, 401, 411, 421, 431, 441, 451, 461, 471, 481, 491, 501, 511, 521, 531, 541, 551, 561, 571, 581, 591, 601, 611, 621, 631, 641, 651, 661, 671, 681, 691, 701, 711, 721, 731, 741, 751, 761, 771, 781, 791, 801, 811, 821, 831, 841, 851, 861, 871, 881, 891, 901, 911, 921, 931, 941, 951, 961, 971, 981, 991, 1001, 1011, 1021, 1031, 1041]","1072","1920","[960, 960, 960, 960, 960, 960, 960, 960, 960, 960, 960, 960, 960, 961, 960, 958, 956, 950, 945, 939, 932, 910, 888, 863, 833, 772, 746, 717, 699, 679, 673, 665, 660, 643, 635, 624, 612, 585, 570, 557, 550, 537, 532, 526, 520, 506, 502, 495, 485, 458, 451, 443, 434, 422, 416, 411, 405, 393, 387, 380, 373, 361, 360, 354, 351, 347, 345, 342, 338, 331, 328, 324, 319, 312, 308, 303, 298, 293, 292, 290, 287, 278, 273, 269, 265, 260, 258, 257, 256, 256, 256, 255, 255, 255, 255, 255, 255, 255, 255, 255, 255, 255, 255, 255]","[1010, 1010, 1010, 1010, 1010, 1010, 1010, 1010, 1010, 1010, 1010, 1010, 1010, 1009, 1005, 1003, 999, 988, 981, 970, 959, 927, 900, 874, 844, 775, 752, 729, 712, 693, 687, 678, 672, 652, 641, 627, 610, 571, 550, 529, 515, 495, 487, 478, 471, 452, 444, 429, 411, 367, 357, 345, 333, 314, 307, 301, 289, 268, 253, 238, 225, 208, 205, 197, 194, 188, 185, 180, 174, 163, 159, 154, 151, 147, 145, 143, 140, 137, 137, 136, 133, 127, 123, 122, 119, 116, 116, 116, 115, 115, 114, 114, 114, 114, 114, 114, 114, 114, 114, 114, 114, 114, 114, 114]"
"NoTrust","Teilnehmer A hat Ihnen keine 2 Punkte übermittelt.","Payback","0","undefined","6","0","2","60","1080","221","0","2","1044","0","legacy","[11, 21, 31, 41, 51, 61, 71, 81, 91, 101, 111, 121, 131, 141, 151, 161, 171, 181, 191, 201, 211, 221, 231, 241, 251, 261, 271, 281, 291, 301, 311, 321, 331, 341, 351, 361, 371, 381, 391, 401, 411, 421, 431, 441, 451, 461, 471, 481, 491, 501, 511, 521, 531, 541, 551, 561, 571, 581, 591, 601, 611, 621, 631, 641, 651, 661, 671, 681, 691, 701, 711, 721, 731, 741, 751, 761, 771, 781, 791, 801, 811, 821, 831, 841, 851, 861, 871, 881, 891, 901, 911, 921, 931, 941, 951, 961, 971, 981, 991, 1001, 1011, 1021, 1031, 1041]","1072","1920","[960, 960, 960, 960, 960, 960, 960, 960, 960, 960, 960, 960, 960, 961, 960, 958, 956, 950, 945, 939, 932, 910, 888, 863, 833, 772, 746, 717, 699, 679, 673, 665, 660, 643, 635, 624, 612, 585, 570, 557, 550, 537, 532, 526, 520, 506, 502, 495, 485, 458, 451, 443, 434, 422, 416, 411, 405, 393, 387, 380, 373, 361, 360, 354, 351, 347, 345, 342, 338, 331, 328, 324, 319, 312, 308, 303, 298, 293, 292, 290, 287, 278, 273, 269, 265, 260, 258, 257, 256, 256, 256, 255, 255, 255, 255, 255, 255, 255, 255, 255, 255, 255, 255, 255]","[1010, 1010, 1010, 1010, 1010, 1010, 1010, 1010, 1010, 1010, 1010, 1010, 1010, 1009, 1005, 1003, 999, 988, 981, 970, 959, 927, 900, 874, 844, 775, 752, 729, 712, 693, 687, 678, 672, 652, 641, 627, 610, 571, 550, 529, 515, 495, 487, 478, 471, 452, 444, 429, 411, 367, 357, 345, 333, 314, 307, 301, 289, 268, 253, 238, 225, 208, 205, 197, 194, 188, 185, 180, 174, 163, 159, 154, 151, 147, 145, 143, 140, 137, 137, 136, 133, 127, 123, 122, 119, 116, 116, 116, 115, 115, 114, 114, 114, 114, 114, 114, 114, 114, 114, 114, 114, 114, 114, 114]"
"Trust","Teilnehmer A hat Ihnen 2 Punkte übermittelt.","Payback","1","undefined","7","0","2","60","1080","671","5","1","1998","0","legacy","[11, 21, 31, 41, 51, 61, 71, 81, 91, 101, 111, 121, 131, 141, 151, 161, 171, 181, 191, 201, 211, 221, 231, 241, 251, 261, 271, 281, 291, 301, 311, 321, 331, 341, 351, 361, 371, 381, 391, 401, 411, 421, 431, 441, 451, 461, 471, 481, 491, 501, 511, 521, 531, 541, 551, 561, 571, 581, 591, 601, 611, 621, 631, 641, 651, 661, 671, 681, 691, 701, 711, 721, 731, 741, 751, 761, 771, 781, 791, 801, 811, 821, 831, 841, 851, 861, 871, 881, 891, 901, 911, 921, 931, 941, 951, 961, 971, 981, 991, 1001, 1011, 1021, 1031, 1041, 1051, 1061, 1071, 1081, 1091, 1101, 1111, 1121, 1131, 1141, 1151, 1161, 1171, 1181, 1191, 1201, 1211, 1221, 1231, 1241, 1251, 1261, 1271, 1281, 1291, 1301, 1311, 1321, 1331, 1341, 1351, 1361, 1371, 1381, 1391, 1401, 1411, 1421, 1431, 1441, 1451, 1461, 1471, 1481, 1491, 1501, 1511, 1521, 1531, 1541, 1551, 1561, 1571, 1581, 1591, 1601, 1611, 1621, 1631, 1641, 1651, 1661, 1671, 1681, 1691, 1701, 1711, 1721, 1731, 1741, 1751, 1761, 1771, 1781, 1791, 1801, 1811, 1821, 1831, 1841, 1851, 1861, 1871, 1881, 1891, 1901, 1911, 1921, 1931, 1941, 1951, 1961, 1971, 1981, 1991]","1072","1920","[960, 960, 960, 960, 960, 960, 960, 960, 960, 960, 960, 960, 960, 960, 960, 960, 960, 960, 960, 960, 960, 960, 960, 960, 960, 960, 960, 960, 960, 960, 960, 960, 960, 960, 960, 960, 960, 960, 960, 960, 960, 960, 960, 960, 960, 960, 961, 961, 961, 961, 963, 966, 966, 966, 969, 970, 970, 971, 973, 974, 975, 976, 979, 981, 981, 983, 986, 989, 991, 997, 1006, 1013, 1019, 1027, 1038, 1043, 1049, 1052, 1056, 1057, 1057, 1057, 1057, 1057, 1057, 1057, 1057, 1057, 1057, 1057, 1057, 1057, 1057, 1057, 1057, 1057, 1057, 1057, 1057, 1057, 1057, 1057, 1057, 1057, 1057, 1057, 1057, 1057, 1057, 1057, 1057, 1057, 1056, 1054, 1049, 1049, 1049, 1049, 1049, 1049, 1049, 1049, 1049, 1049, 1049, 1049, 1049, 1049, 1049, 1051, 1055, 1056, 1059, 1061, 1065, 1067, 1069, 1072, 1078, 1085, 1090, 1098, 1116, 1132, 1147, 1161, 1193, 1206, 1220, 1229, 1244, 1254, 1260, 1268, 1286, 1295, 1308, 1321, 1357, 1375, 1393, 1411, 1449, 1468, 1494, 1515, 1563, 1584, 1602, 1623, 1656, 1670, 1689, 1698, 1716, 1724, 1733, 1738, 1748, 1749, 1750, 1753, 1753, 1753, 1753, 1754, 1754, 1754, 1754, 1754, 1754, 1754, 1754, 1754, 1754, 1754, 1754, 1754, 1754]","[1010, 1010, 1010, 1010, 1010, 1010, 1010, 1010, 1010, 1010, 1010, 1010, 1010, 1010, 1010, 1010, 1010, 1010, 1010, 1010, 1010, 1010, 1010, 1010, 1010, 1010, 1010, 1010, 1010, 1010, 1010, 1010, 1010, 1010, 1010, 1010, 1010, 1010, 1010, 1010, 1010, 1010, 1008, 1008, 1007, 1006, 1004, 1003, 1002, 999, 995, 990, 987, 984, 977, 975, 971, 969, 966, 963, 962, 960, 955, 950, 948, 945, 938, 932, 926, 919, 906, 898, 890, 879, 863, 856, 849, 843, 838, 837, 837, 837, 837, 837, 837, 837, 837, 837, 837, 837, 837, 837, 837, 837, 837, 837, 837, 837, 837, 837, 837, 837, 837, 837, 837, 837, 837, 837, 837, 837, 837, 837, 835, 835, 832, 831, 830, 829, 826, 824, 822, 820, 815, 812, 808, 805, 798, 797, 794, 792, 786, 784, 780, 778, 771, 769, 764, 759, 747, 738, 732, 722, 697, 679, 661, 645, 613, 602, 591, 585, 574, 568, 563, 555, 537, 528, 516, 503, 471, 453, 438, 421, 391, 372, 350, 330, 284, 265, 246, 227, 193, 178, 159, 150, 129, 119, 110, 102, 90, 86, 85, 82, 80, 80, 80, 79, 79, 79, 79, 79, 79, 79, 79, 79, 79, 79, 79, 79, 79]"
"Trust","Teilnehmer A hat Ihnen 2 Punkte übermittelt.","Payback","0","undefined","8","0","2","60","1080","671","10","2","2158","0","legacy","[11, 21, 31, 41, 51, 61, 71, 81, 91, 101, 111, 121, 131, 141, 151, 161, 171, 181, 191, 201, 211, 221, 231, 241, 251, 261, 271, 281, 291, 301, 311, 321, 331, 341, 351, 361, 371, 381, 391, 401, 411, 421, 431, 441, 451, 461, 471, 481, 491, 501, 511, 521, 531, 541, 551, 561, 571, 581, 591, 601, 611, 621, 631, 641, 651, 661, 671, 681, 691, 701, 711, 721, 731, 741, 751, 761, 771, 781, 791, 801, 811, 821, 831, 841, 851, 861, 871, 881, 891, 901, 911, 921, 931, 941, 951, 961, 971, 981, 991, 1001, 1011, 1021, 1031, 1041, 1051, 1061, 1071, 1081, 1091, 1101, 1111, 1121, 1131, 1141, 1151, 1161, 1171, 1181, 1191, 1201, 1211, 1221, 1231, 1241, 1251, 1261, 1271, 1281, 1291, 1301, 1311, 1321, 1331, 1341, 1351, 1361, 1371, 1381, 1391, 1401, 1411, 1421, 1431, 1441, 1451, 1461, 1471, 1481, 1491, 1501, 1511, 1521, 1531, 1541, 1551, 1561, 1571, 1581, 1591, 1601, 1611, 1621, 1631, 1641, 1651, 1661, 1671, 1681, 1691, 1701, 1711, 1721, 1731, 1741, 1751, 1761, 1771, 1781, 1791, 1801, 1811, 1821, 1831, 1841, 1851, 1861, 1871, 1881, 1891, 1901, 1911, 1921, 1931, 1941, 1951, 1961, 1971, 1981, 1991, 2001, 2011, 2021, 2031, 2041, 2051, 2061, 2071, 2081, 2091, 2101, 2111, 2121, 2131, 2141, 2151]","1072","1920","[960, 960, 960, 960, 960, 960, 960, 960, 960, 960, 960, 960, 960, 960, 960, 960, 960, 960, 960, 960, 960, 960, 960, 960, 960, 960, 960, 960, 960, 960, 960, 960, 960, 960, 960, 960, 960, 960, 960, 960, 960, 960, 960, 960, 960, 960, 960, 960, 960, 961, 964, 965, 966, 968, 969, 970, 971, 972, 974, 975, 976, 976, 976, 976, 977, 977, 977, 977, 977, 977, 977, 978, 979, 980, 984, 987, 988, 992, 995, 996, 998, 1000, 1002, 1006, 1008, 1010, 1017, 1020, 1023, 1024, 1025, 1025, 1025, 1025, 1025, 1025, 1025, 1025, 1025, 1025, 1025, 1025, 1025, 1025, 1025, 1025, 1025, 1025, 1025, 1025, 1025, 1025, 1025, 1025, 1025, 1025, 1025, 1025, 1025, 1025, 1025, 1027, 1039, 1050, 1058, 1063, 1066, 1067, 1070, 1070, 1079, 1083, 1087, 1091, 1098, 1098, 1098, 1097, 1083, 1076, 1069, 1062, 1043, 1035, 1023, 1002, 936, 898, 857, 821, 748, 723, 697, 670, 613, 574, 537, 499, 404, 354, 305, 264, 202, 180, 166, 150, 123, 109, 101, 93, 91, 91, 91, 91, 90, 89, 87, 86, 84, 84, 84, 84, 84, 84, 84, 84, 84, 84, 84, 84, 84, 84, 84, 84, 84, 84, 84, 84, 84, 84, 84, 84, 84, 84, 84, 84, 84, 84, 84, 84, 84, 84, 84, 84, 84]","[1010, 1010, 1010, 1010, 1010, 1010, 1010, 1010, 1010, 1010, 1010, 1010, 1010, 1010, 1010, 1010, 1010, 1010, 1010, 1010, 1010, 1010, 1010, 1010, 1010, 1010, 1010, 1010, 1010, 1010, 1010, 1010, 1010, 1010, 1010, 1010, 1010, 1010, 1010, 1010, 1010, 1010, 1010, 1010, 1010, 1010, 1010, 1010, 1009, 1008, 1002, 1000, 997, 992, 979, 973, 966, 957, 948, 945, 943, 943, 942, 942, 941, 940, 937, 933, 930, 926, 919, 917, 913, 910, 901, 897, 893, 888, 880, 875, 869, 862, 843, 833, 822, 812, 788, 777, 769, 761, 760, 760, 760, 760, 760, 760, 760, 760, 760, 760, 760, 760, 760, 760, 760, 760, 760, 760, 760, 760, 760, 760, 760, 760, 760, 760, 760, 760, 760, 760, 760, 759, 759, 759, 759, 759, 757, 757, 753, 750, 736, 728, 720, 710, 689, 677, 662, 647, 621, 610, 599, 589, 567, 557, 546, 529, 484, 463, 444, 431, 408, 400, 392, 385, 365, 354, 335, 316, 266, 237, 208, 180, 149, 136, 127, 118, 109, 104, 100, 98, 95, 95, 95, 95, 95, 94, 92, 90, 87, 85, 85, 85, 85, 85, 85, 85, 85, 85, 85, 85, 85, 85, 85, 85, 85, 85, 85, 85, 85, 85, 85, 85, 85, 85, 85, 85, 85, 85, 85, 85, 85, 85, 85, 85, 85]"
"Promise","Wie oft werden Sie die Hälfte zurückgeben?","Promise","1","undefined","8","0","3","60","1080","291","10","1","1024","0","legacy","[11, 21, 31, 41, 51, 61, 71, 81, 91, 101, 111, 121, 131, 141, 151, 161, 171, 181, 191, 201, 211, 221, 231, 241, 251, 261, 271, 281, 291, 301, 311, 321, 331, 341, 351, 361, 371, 381, 391, 401, 411, 421, 431, 441, 451, 461, 471, 481, 491, 501, 511, 521, 531, 541, 551, 561, 571, 581, 591, 601, 611, 621, 631, 641, 651, 661, 671, 681, 691, 701, 711, 721, 731, 741, 751, 761, 771, 781, 791, 801, 811, 821, 831, 841, 851, 861, 871, 881, 891, 901, 911, 921, 931, 941, 951, 961, 971, 981, 991, 1001, 1011, 1021]","1072","1920","[960, 960, 960, 960, 960, 960, 960, 960, 960, 960, 960, 960, 960, 960, 960, 960, 960, 960, 960, 960, 964, 970, 975, 989, 994, 1002, 1007, 1018, 1024, 1030, 1038, 1060, 1070, 1084, 1094, 1111, 1119, 1126, 1131, 1139, 1144, 1149, 1154, 1162, 1167, 1170, 1175, 1187, 1196, 1206, 1219, 1243, 1259, 1270, 1283, 1306, 1315, 1333, 1351, 1404, 1434, 1463, 1485, 1532, 1546, 1556, 1565, 1585, 1591, 1601, 1609, 1632, 1643, 1652, 1661, 1677, 1685, 1691, 1695, 1704, 1706, 1709, 1712, 1715, 1717, 1718, 1719, 1720, 1720, 1720, 1720, 1720, 1720, 1720, 1720, 1720, 1720, 1720, 1720, 1720, 1720, 1720]","[1010, 1010, 1010, 1010, 1010, 1010, 1010, 1010, 1010, 1010, 1010, 1010, 1010, 1010, 1010, 1010, 1010, 1010, 1010, 1010, 1010, 1007, 1003, 990, 986, 976, 968, 951, 939, 930, 919, 896, 889, 879, 872, 861, 854, 850, 846, 839, 831, 825, 819, 804, 796, 789, 778, 755, 742, 720, 696, 658, 638, 621, 604, 572, 558, 535, 505, 432, 393, 358, 332, 294, 283, 273, 265, 245, 236, 222, 213, 185, 175, 164, 153, 133, 126, 118, 113, 107, 105, 103, 101, 98, 96, 95, 93, 91, 91, 91, 91, 91, 91, 91, 91, 91, 91, 91, 91, 91, 91, 91]"
"Trust","Teilnehmer A hat Ihnen 2 Punkte übermittelt.","Payback","1","undefined","9","0","3","60","1080","451","5","1","1574","0","legacy","[11, 21, 31, 41, 51, 61, 71, 81, 91, 101, 111, 121, 131, 141, 151, 161, 171, 181, 191, 201, 211, 221, 231, 241, 251, 261, 271, 281, 291, 301, 311, 321, 331, 341, 351, 361, 371, 381, 391, 401, 411, 421, 431, 441, 451, 461, 471, 481, 491, 501, 511, 521, 531, 541, 551, 561, 571, 581, 591, 601, 611, 621, 631, 641, 651, 661, 671, 681, 691, 701, 711, 721, 731, 741, 751, 761, 771, 781, 791, 801, 811, 821, 831, 841, 851, 861, 871, 881, 891, 901, 911, 921, 931, 941, 951, 961, 971, 981, 991, 1001, 1011, 1021, 1031, 1041, 1051, 1061, 1071, 1081, 1091, 1101, 1111, 1121, 1131, 1141, 1151, 1161, 1171, 1181, 1191, 1201, 1211, 1221, 1231, 1241, 1251, 1261, 1271, 1281, 1291, 1301, 1311, 1321, 1331, 1341, 1351, 1361, 1371, 1381, 1391, 1401, 1411, 1421, 1431, 1441, 1451, 1461, 1471, 1481, 1491, 1501, 1511, 1521, 1531, 1541, 1551, 1561, 1571]","1072","1920","[960, 960, 960, 960, 960, 960, 960, 960, 960, 960, 960, 960, 960, 960, 960, 960, 960, 960, 960, 960, 960, 960, 960, 960, 960, 960, 960, 960, 960, 960, 960, 960, 960, 960, 960, 960, 960, 960, 961, 962, 963, 966, 973, 978, 982, 988, 995, 999, 1000, 1004, 1009, 1014, 1022, 1028, 1041, 1047, 1053, 1057, 1066, 1070, 1071, 1075, 1082, 1085, 1091, 1093, 1101, 1104, 1111, 1115, 1125, 1131, 1136, 1144, 1155, 1162, 1168, 1175, 1188, 1194, 1205, 1211, 1232, 1248, 1257, 1269, 1293, 1302, 1311, 1319, 1337, 1346, 1353, 1364, 1388, 1400, 1406, 1414, 1429, 1437, 1444, 1452, 1476, 1488, 1498, 1507, 1527, 1537, 1549, 1560, 1584, 1596, 1609, 1622, 1646, 1658, 1668, 1680, 1693, 1698, 1706, 1712, 1726, 1736, 1744, 1753, 1761, 1763, 1763, 1764, 1764, 1764, 1764, 1764, 1765, 1766, 1766, 1766, 1767, 1767, 1767, 1767, 1767, 1767, 1767, 1767, 1767, 1767, 1767, 1767, 1767, 1767, 1767, 1767, 1767, 1767, 1767]","[1010, 1010, 1010, 1010, 1010, 1010, 1010, 1010, 1010, 1010, 1010, 1010, 1010, 1010, 1010, 1010, 1010, 1010, 1010, 1010, 1010, 1010, 1010, 1010, 1010, 1010, 1010, 1010, 1010, 1010, 1010, 1010, 1010, 1010, 1007, 1004, 1001, 997, 985, 979, 973, 967, 953, 946, 939, 930, 919, 913, 907, 900, 879, 868, 851, 836, 805, 794, 788, 783, 772, 766, 763, 759, 745, 739, 732, 727, 715, 711, 703, 697, 686, 680, 672, 661, 644, 637, 628, 621, 606, 599, 587, 578, 551, 535, 525, 513, 489, 480, 471, 463, 447, 436, 429, 419, 399, 389, 382, 374, 360, 355, 350, 345, 324, 316, 307, 299, 287, 281, 277, 272, 264, 259, 254, 248, 238, 232, 227, 222, 216, 211, 205, 199, 187, 177, 168, 159, 148, 145, 145, 144, 144, 143, 143, 142, 142, 141, 140, 139, 138, 137, 136, 136, 135, 135, 135, 135, 135, 135, 135, 135, 135, 135, 135, 135, 135, 135, 135]"
"Trust","Teilnehmer A hat Ihnen 2 Punkte übermittelt.","Payback","1","undefined","10","0","3","60","1080","481","5","1","1375","0","legacy","[11, 21, 31, 41, 51, 61, 71, 81, 91, 101, 111, 121, 131, 141, 151, 161, 171, 181, 191, 201, 211, 221, 231, 241, 251, 261, 271, 281, 291, 301, 311, 321, 331, 341, 351, 361, 371, 381, 391, 401, 411, 421, 431, 441, 451, 461, 471, 481, 491, 501, 511, 521, 531, 541, 551, 561, 571, 581, 591, 601, 611, 621, 631, 641, 651, 661, 671, 681, 691, 701, 711, 721, 731, 741, 751, 761, 771, 781, 791, 801, 811, 821, 831, 841, 851, 861, 871, 881, 891, 901, 911, 921, 931, 941, 951, 961, 971, 981, 991, 1001, 1011, 1021, 1031, 1041, 1051, 1061, 1071, 1081, 1091, 1101, 1111, 1121, 1131, 1141, 1151, 1161, 1171, 1181, 1191, 1201, 1211, 1221, 1231, 1241, 1251, 1261, 1271, 1281, 1291, 1301, 1311, 1321, 1331, 1341, 1351, 1361, 1371]","1072","1920","[960, 960, 960, 960, 960, 960, 960, 960, 960, 960, 960, 960, 960, 960, 960, 960, 960, 960, 960, 960, 960, 960, 960, 960, 960, 960, 960, 960, 960, 960, 960, 960, 960, 960, 960, 962, 964, 964, 966, 972, 973, 978, 982, 988, 992, 996, 1001, 1006, 1009, 1012, 1014, 1019, 1022, 1025, 1027, 1035, 1041, 1044, 1048, 1054, 1056, 1059, 1060, 1064, 1065, 1066, 1068, 1073, 1077, 1078, 1081, 1088, 1092, 1096, 1100, 1106, 1109, 1112, 1117, 1128, 1133, 1138, 1147, 1169, 1183, 1198, 1216, 1242, 1254, 1264, 1275, 1295, 1310, 1323, 1343, 1381, 1402, 1420, 1442, 1496, 1524, 1546, 1574, 1619, 1642, 1662, 1678, 1713, 1726, 1738, 1752, 1775, 1785, 1792, 1799, 1810, 1814, 1819, 1819, 1819, 1819, 1819, 1819, 1819, 1819, 1819, 1819, 1819, 1819, 1819, 1819, 1819, 1819, 1819, 1819, 1819, 1819]","[1010, 1010, 1010, 1010, 1010, 1010, 1010, 1010, 1010, 1010, 1010, 1010, 1010, 1010, 1010, 1010, 1010, 1010, 1010, 1010, 1010, 1010, 1010, 1010, 1010, 1010, 1010, 1010, 1010, 1010, 1010, 1010, 1009, 1008, 1006, 1000, 997, 994, 991, 981, 978, 972, 967, 957, 952, 948, 943, 936, 931, 927, 922, 910, 901, 891, 880, 857, 842, 834, 825, 811, 803, 797, 789, 772, 763, 755, 747, 739, 737, 736, 735, 731, 728, 722, 717, 705, 698, 691, 679, 655, 644, 631, 616, 578, 556, 538, 515, 487, 472, 458, 444, 410, 393, 375, 354, 316, 299, 282, 268, 228, 209, 193, 175, 143, 127, 112, 102, 76, 69, 59, 50, 38, 32, 28, 25, 22, 20, 19, 19, 19, 19, 19, 19, 19, 19, 19, 19, 19, 19, 19, 19, 19, 19, 19, 19, 19, 19]"
"Trust","Teilnehmer A hat Ihnen 2 Punkte übermittelt.","Payback","1","undefined","11","0","3","60","1080","241","5","1","1126","0","legacy","[11, 21, 31, 41, 51, 61, 71, 81, 91, 101, 111, 121, 131, 141, 151, 161, 171, 181, 191, 201, 211, 221, 231, 241, 251, 261, 271, 281, 291, 301, 311, 321, 331, 341, 351, 361, 371, 381, 391, 401, 411, 421, 431, 441, 451, 461, 471, 481, 491, 501, 511, 521, 531, 541, 551, 561, 571, 581, 591, 601, 611, 621, 631, 641, 651, 661, 671, 681, 691, 701, 711, 721, 731, 741, 751, 761, 771, 781, 791, 801, 811, 821, 831, 841, 851, 861, 871, 881, 891, 901, 911, 921, 931, 941, 951, 961, 971, 981, 991, 1001, 1011, 1021, 1031, 1041, 1051, 1061, 1071, 1081, 1091, 1101, 1111, 1121]","1072","1920","[960, 960, 960, 960, 960, 960, 960, 960, 960, 960, 960, 960, 960, 960, 960, 960, 960, 960, 963, 968, 972, 978, 991, 1002, 1009, 1017, 1041, 1053, 1065, 1079, 1111, 1137, 1164, 1192, 1250, 1276, 1302, 1324, 1368, 1389, 1405, 1425, 1473, 1500, 1526, 1555, 1603, 1621, 1632, 1638, 1646, 1648, 1652, 1656, 1666, 1671, 1676, 1681, 1686, 1687, 1687, 1687, 1687, 1687, 1687, 1687, 1687, 1687, 1687, 1687, 1687, 1687, 1687, 1687, 1687, 1687, 1687, 1687, 1687, 1687, 1687, 1687, 1687, 1687, 1687, 1687, 1687, 1687, 1687, 1687, 1687, 1687, 1687, 1687, 1687, 1687, 1687, 1687, 1687, 1687, 1687, 1687, 1687, 1687, 1687, 1687, 1687, 1687, 1687, 1687, 1687, 1687]","[1010, 1010, 1010, 1010, 1010, 1010, 1010, 1010, 1010, 1010, 1010, 1010, 1010, 1010, 1010, 1010, 1010, 1010, 998, 992, 981, 969, 950, 933, 920, 906, 870, 853, 836, 816, 771, 732, 693, 652, 573, 542, 513, 489, 441, 420, 404, 381, 326, 299, 276, 249, 206, 188, 177, 166, 151, 145, 137, 132, 118, 112, 107, 103, 97, 96, 96, 96, 96, 96, 96, 96, 96, 96, 96, 96, 96, 96, 96, 96, 95, 95, 95, 95, 95, 95, 95, 95, 95, 95, 95, 95, 95, 95, 95, 95, 95, 95, 95, 95, 95, 95, 95, 95, 95, 95, 95, 95, 95, 95, 95, 95, 95, 95, 95, 95, 95, 95]"
"Promise","Wie oft werden Sie die Hälfte zurückgeben?","Promise","1","undefined","11","0","4","60","1080","241","5","1","760","0","legacy","[11, 21, 31, 41, 51, 61, 71, 81, 91, 101, 111, 121, 131, 141, 151, 161, 171, 181, 191, 201, 211, 221, 231, 241, 251, 261, 271, 281, 291, 301, 311, 321, 331, 341, 351, 361, 371, 381, 391, 401, 411, 421, 431, 441, 451, 461, 471, 481, 491, 501, 511, 521, 531, 541, 551, 561, 571, 581, 591, 601, 611, 621, 631, 641, 651, 661, 671, 681, 691, 701, 711, 721, 731, 741, 751]","1072","1920","[960, 960, 960, 960, 960, 960, 960, 960, 960, 960, 960, 960, 960, 960, 960, 960, 960, 960, 965, 984, 994, 1007, 1019, 1036, 1045, 1057, 1068, 1103, 1122, 1145, 1170, 1233, 1268, 1297, 1327, 1381, 1397, 1423, 1446, 1492, 1516, 1538, 1558, 1591, 1600, 1607, 1613, 1624, 1628, 1634, 1640, 1656, 1670, 1682, 1692, 1701, 1704, 1704, 1705, 1707, 1707, 1708, 1708, 1709, 1709, 1709, 1709, 1709, 1709, 1709, 1709, 1709, 1709, 1709, 1709]","[1010, 1010, 1010, 1010, 1010, 1010, 1010, 1010, 1010, 1010, 1010, 1010, 1010, 1010, 1010, 1010, 1010, 1009, 1002, 986, 976, 963, 949, 929, 920, 909, 901, 868, 850, 821, 792, 705, 655, 619, 587, 535, 519, 494, 474, 431, 407, 380, 353, 302, 286, 269, 258, 241, 235, 225, 214, 194, 178, 163, 151, 135, 131, 130, 127, 125, 123, 123, 121, 120, 119, 119, 119, 119, 119, 119, 119, 119, 119, 119, 119]"
"Trust","Teilnehmer A hat Ihnen 2 Punkte übermittelt.","Payback","1","undefined","12","0","4","60","1080","251","5","1","1031","0","legacy","[11, 21, 31, 41, 51, 61, 71, 81, 91, 101, 111, 121, 131, 141, 151, 161, 171, 181, 191, 201, 211, 221, 231, 241, 251, 261, 271, 281, 291, 301, 311, 321, 331, 341, 351, 361, 371, 381, 391, 401, 411, 421, 431, 441, 451, 461, 471, 481, 491, 501, 511, 521, 531, 541, 551, 561, 571, 581, 591, 601, 611, 621, 631, 641, 651, 661, 671, 681, 691, 701, 711, 721, 731, 741, 751, 761, 771, 781, 791, 801, 811, 821, 831, 841, 851, 861, 871, 881, 891, 901, 911, 921, 931, 941, 951, 961, 971, 981, 991, 1001, 1011, 1021, 1031]","1072","1920","[960, 960, 960, 960, 960, 960, 960, 960, 960, 960, 960, 960, 960, 960, 960, 962, 963, 967, 968, 976, 981, 988, 996, 1015, 1026, 1042, 1062, 1100, 1116, 1136, 1159, 1201, 1225, 1245, 1261, 1292, 1300, 1311, 1322, 1344, 1358, 1367, 1377, 1399, 1410, 1419, 1429, 1444, 1451, 1458, 1463, 1480, 1490, 1499, 1513, 1532, 1544, 1550, 1557, 1569, 1575, 1579, 1585, 1597, 1603, 1608, 1613, 1621, 1626, 1630, 1633, 1639, 1644, 1648, 1651, 1655, 1657, 1657, 1657, 1658, 1660, 1660, 1661, 1665, 1665, 1665, 1666, 1667, 1667, 1667, 1667, 1667, 1668, 1668, 1670, 1672, 1672, 1672, 1672, 1672, 1672, 1672, 1672]","[1010, 1010, 1010, 1010, 1010, 1010, 1010, 1010, 1010, 1010, 1010, 1010, 1010, 1010, 1010, 1009, 1008, 1003, 1000, 991, 985, 977, 968, 949, 935, 919, 898, 859, 840, 819, 797, 759, 739, 721, 707, 671, 660, 644, 628, 601, 585, 575, 565, 540, 530, 520, 510, 490, 478, 467, 457, 425, 409, 392, 373, 349, 332, 322, 310, 287, 275, 265, 253, 230, 221, 211, 204, 189, 180, 174, 168, 157, 151, 146, 141, 136, 134, 132, 132, 131, 129, 128, 127, 122, 121, 119, 118, 117, 117, 117, 117, 117, 116, 115, 112, 109, 109, 109, 109, 109, 109, 109, 109]"
"Trust","Teilnehmer A hat Ihnen 2 Punkte übermittelt.","Payback","1","undefined","13","0","4","60","1080","391","5","1","1310","0","legacy","[11, 21, 31, 41, 51, 61, 71, 81, 91, 101, 111, 121, 131, 141, 151, 161, 171, 181, 191, 201, 211, 221, 231, 241, 251, 261, 271, 281, 291, 301, 311, 321, 331, 341, 351, 361, 371, 381, 391, 401, 411, 421, 431, 441, 451, 461, 471, 481, 491, 501, 511, 521, 531, 541, 551, 561, 571, 581, 591, 601, 611, 621, 631, 641, 651, 661, 671, 681, 691, 701, 711, 721, 731, 741, 751, 761, 771, 781, 791, 801, 811, 821, 831, 841, 851, 861, 871, 881, 891, 901, 911, 921, 931, 941, 951, 961, 971, 981, 991, 1001, 1011, 1021, 1031, 1041, 1051, 1061, 1071, 1081, 1091, 1101, 1111, 1121, 1131, 1141, 1151, 1161, 1171, 1181, 1191, 1201, 1211, 1221, 1231, 1241, 1251, 1261, 1271, 1281, 1291, 1301]","1072","1920","[960, 960, 960, 960, 960, 960, 960, 960, 960, 960, 960, 960, 960, 960, 960, 960, 960, 960, 960, 960, 960, 960, 960, 960, 960, 960, 960, 960, 960, 960, 960, 960, 960, 960, 987, 1003, 1015, 1032, 1061, 1077, 1091, 1108, 1143, 1164, 1190, 1206, 1245, 1259, 1274, 1285, 1306, 1312, 1322, 1331, 1346, 1356, 1366, 1380, 1398, 1405, 1416, 1423, 1440, 1445, 1452, 1460, 1477, 1488, 1500, 1513, 1537, 1545, 1550, 1557, 1568, 1573, 1579, 1584, 1594, 1600, 1605, 1613, 1622, 1626, 1632, 1638, 1652, 1660, 1670, 1678, 1693, 1701, 1707, 1713, 1724, 1728, 1732, 1737, 1738, 1739, 1739, 1739, 1739, 1739, 1739, 1739, 1739, 1739, 1739, 1739, 1739, 1739, 1739, 1739, 1739, 1739, 1739, 1739, 1739, 1739, 1739, 1739, 1739, 1739, 1739, 1739, 1739, 1739, 1739, 1739]","[1010, 1010, 1010, 1010, 1010, 1010, 1010, 1010, 1010, 1010, 1010, 1010, 1010, 1010, 1010, 1010, 1010, 1010, 1010, 1010, 1010, 1010, 1010, 1010, 1010, 1010, 1010, 1010, 1010, 1010, 1010, 1010, 1010, 1010, 994, 982, 970, 952, 912, 892, 870, 849, 808, 787, 764, 748, 710, 693, 675, 658, 625, 614, 598, 584, 560, 545, 533, 514, 488, 477, 463, 452, 421, 410, 399, 389, 367, 355, 342, 329, 303, 293, 287, 276, 260, 254, 245, 239, 227, 220, 214, 205, 190, 185, 178, 171, 157, 149, 141, 135, 124, 117, 111, 105, 96, 92, 89, 85, 84, 83, 83, 83, 83, 83, 83, 83, 83, 83, 83, 83, 83, 83, 83, 83, 83, 83, 83, 83, 83, 83, 83, 83, 83, 83, 83, 83, 83, 83, 83, 83]"
"Trust","Teilnehmer A hat Ihnen 2 Punkte übermittelt.","Payback","0","undefined","14","0","4","60","1080","661","10","2","1765","0","legacy","[11, 21, 31, 41, 51, 61, 71, 81, 91, 101, 111, 121, 131, 141, 151, 161, 171, 181, 191, 201, 211, 221, 231, 241, 251, 261, 271, 281, 291, 301, 311, 321, 331, 341, 351, 361, 371, 381, 391, 401, 411, 421, 431, 441, 451, 461, 471, 481, 491, 501, 511, 521, 531, 541, 551, 561, 571, 581, 591, 601, 611, 621, 631, 641, 651, 661, 671, 681, 691, 701, 711, 721, 731, 741, 751, 761, 771, 781, 791, 801, 811, 821, 831, 841, 851, 861, 871, 881, 891, 901, 911, 921, 931, 941, 951, 961, 971, 981, 991, 1001, 1011, 1021, 1031, 1041, 1051, 1061, 1071, 1081, 1091, 1101, 1111, 1121, 1131, 1141, 1151, 1161, 1171, 1181, 1191, 1201, 1211, 1221, 1231, 1241, 1251, 1261, 1271, 1281, 1291, 1301, 1311, 1321, 1331, 1341, 1351, 1361, 1371, 1381, 1391, 1401, 1411, 1421, 1431, 1441, 1451, 1461, 1471, 1481, 1491, 1501, 1511, 1521, 1531, 1541, 1551, 1561, 1571, 1581, 1591, 1601, 1611, 1621, 1631, 1641, 1651, 1661, 1671, 1681, 1691, 1701, 1711, 1721, 1731, 1741, 1751, 1761]","1072","1920","[960, 960, 960, 960, 960, 960, 960, 960, 960, 960, 960, 960, 960, 960, 960, 960, 960, 960, 960, 960, 960, 960, 960, 960, 960, 960, 960, 960, 960, 960, 960, 960, 960, 960, 960, 960, 960, 960, 960, 960, 960, 960, 960, 960, 960, 960, 960, 960, 960, 960, 960, 960, 960, 960, 960, 960, 960, 960, 960, 964, 967, 971, 976, 980, 983, 986, 991, 993, 996, 998, 1004, 1008, 1011, 1014, 1023, 1024, 1027, 1029, 1033, 1033, 1036, 1038, 1042, 1045, 1046, 1050, 1056, 1058, 1060, 1062, 1065, 1069, 1073, 1077, 1089, 1096, 1101, 1107, 1117, 1122, 1128, 1133, 1145, 1149, 1155, 1162, 1173, 1179, 1181, 1182, 1185, 1185, 1185, 1185, 1185, 1185, 1185, 1185, 1185, 1185, 1185, 1185, 1185, 1185, 1185, 1185, 1185, 1185, 1185, 1185, 1185, 1182, 1165, 1138, 1062, 1017, 970, 926, 835, 790, 750, 702, 607, 551, 502, 460, 378, 342, 314, 289, 247, 226, 211, 198, 174, 162, 154, 147, 134, 125, 122, 117, 114, 113, 113, 113, 113, 113, 113, 113, 113, 113, 113, 113, 113, 113]","[1010, 1010, 1010, 1010, 1010, 1010, 1010, 1010, 1010, 1010, 1010, 1010, 1010, 1010, 1010, 1010, 1010, 1010, 1010, 1010, 1010, 1010, 1010, 1010, 1010, 1010, 1010, 1010, 1010, 1010, 1010, 1010, 1010, 1010, 1010, 1010, 1010, 1010, 1010, 1010, 1010, 1010, 1010, 1010, 1010, 1010, 1010, 1010, 1010, 1010, 1010, 1010, 1010, 1010, 1010, 1010, 1010, 1010, 993, 984, 977, 968, 956, 947, 940, 934, 920, 911, 903, 893, 872, 864, 857, 851, 839, 835, 831, 826, 817, 812, 805, 799, 790, 786, 783, 778, 770, 767, 764, 760, 755, 750, 745, 738, 720, 710, 701, 694, 677, 669, 658, 650, 635, 626, 620, 611, 596, 588, 583, 581, 576, 576, 576, 576, 576, 576, 576, 576, 576, 576, 576, 576, 576, 576, 576, 576, 576, 576, 576, 576, 576, 569, 555, 532, 469, 437, 406, 376, 322, 304, 285, 267, 235, 219, 207, 196, 177, 168, 160, 152, 139, 130, 124, 119, 108, 102, 98, 95, 84, 79, 76, 71, 69, 69, 69, 69, 69, 69, 69, 69, 69, 69, 69, 69, 69, 69]"
"Promise","Wie oft werden Sie die Hälfte zurückgeben?","Promise","1","undefined","14","0","5","60","1080","411","10","1","1745","0","legacy","[11, 21, 31, 41, 51, 61, 71, 81, 91, 101, 111, 121, 131, 141, 151, 161, 171, 181, 191, 201, 211, 221, 231, 241, 251, 261, 271, 281, 291, 301, 311, 321, 331, 341, 351, 361, 371, 381, 391, 401, 411, 421, 431, 441, 451, 461, 471, 481, 491, 501, 511, 521, 531, 541, 551, 561, 571, 581, 591, 601, 611, 621, 631, 641, 651, 661, 671, 681, 691, 701, 711, 721, 731, 741, 751, 761, 771, 781, 791, 801, 811, 821, 831, 841, 851, 861, 871, 881, 891, 901, 911, 921, 931, 941, 951, 961, 971, 981, 991, 1001, 1011, 1021, 1031, 1041, 1051, 1061, 1071, 1081, 1091, 1101, 1111, 1121, 1131, 1141, 1151, 1161, 1171, 1181, 1191, 1201, 1211, 1221, 1231, 1241, 1251, 1261, 1271, 1281, 1291, 1301, 1311, 1321, 1331, 1341, 1351, 1361, 1371, 1381, 1391, 1401, 1411, 1421, 1431, 1441, 1451, 1461, 1471, 1481, 1491, 1501, 1511, 1521, 1531, 1541, 1551, 1561, 1571, 1581, 1591, 1601, 1611, 1621, 1631, 1641, 1651, 1661, 1671, 1681, 1691, 1701, 1711, 1721, 1731, 1741]","1072","1920","[960, 960, 960, 960, 960, 960, 960, 960, 960, 960, 960, 960, 960, 960, 960, 960, 960, 960, 960, 960, 960, 960, 960, 960, 960, 960, 960, 960, 960, 961, 961, 963, 965, 965, 968, 970, 977, 980, 983, 987, 994, 998, 1001, 1007, 1018, 1022, 1027, 1033, 1042, 1048, 1053, 1055, 1062, 1064, 1067, 1070, 1081, 1086, 1095, 1103, 1123, 1134, 1145, 1155, 1172, 1178, 1186, 1194, 1210, 1219, 1230, 1243, 1268, 1286, 1301, 1310, 1330, 1338, 1345, 1353, 1370, 1382, 1389, 1400, 1419, 1429, 1440, 1450, 1473, 1482, 1490, 1502, 1522, 1531, 1540, 1548, 1558, 1563, 1568, 1575, 1590, 1598, 1606, 1615, 1631, 1634, 1639, 1643, 1648, 1651, 1653, 1656, 1662, 1665, 1668, 1668, 1672, 1673, 1673, 1673, 1673, 1673, 1674, 1675, 1676, 1676, 1676, 1676, 1676, 1676, 1676, 1676, 1676, 1676, 1676, 1676, 1676, 1676, 1676, 1676, 1676, 1676, 1676, 1677, 1677, 1679, 1679, 1679, 1681, 1681, 1681, 1681, 1682, 1682, 1682, 1682, 1682, 1682, 1682, 1682, 1682, 1682, 1682, 1682, 1682, 1682, 1682, 1682, 1682, 1682, 1682, 1682, 1682, 1682]","[1010, 1010, 1010, 1010, 1010, 1010, 1010, 1010, 1010, 1010, 1010, 1010, 1010, 1010, 1010, 1010, 1010, 1010, 1010, 1010, 1010, 1010, 1010, 1010, 1010, 1010, 1010, 1010, 1009, 1008, 1006, 1003, 1000, 998, 995, 990, 979, 972, 966, 957, 936, 922, 910, 891, 852, 836, 823, 810, 793, 787, 779, 776, 765, 759, 749, 738, 702, 685, 664, 649, 622, 609, 599, 589, 572, 566, 557, 548, 527, 518, 506, 494, 470, 455, 445, 436, 420, 414, 409, 404, 391, 383, 377, 369, 351, 340, 330, 320, 298, 290, 283, 275, 260, 253, 249, 242, 230, 223, 218, 211, 198, 192, 188, 185, 177, 175, 171, 168, 166, 163, 162, 159, 155, 154, 151, 151, 148, 148, 148, 148, 148, 147, 147, 145, 145, 145, 145, 144, 144, 144, 144, 144, 144, 144, 144, 144, 144, 144, 144, 144, 144, 144, 144, 144, 144, 143, 142, 140, 133, 131, 130, 128, 127, 127, 127, 125, 124, 124, 123, 122, 121, 121, 121, 121, 121, 121, 121, 121, 121, 121, 121, 121, 121, 121]"
"NoTrust","Teilnehmer A hat Ihnen keine 2 Punkte übermittelt.","Payback","1","undefined","15","0","5","60","1080","411","0","1","1745","0","legacy","[11, 21, 31, 41, 51, 61, 71, 81, 91, 101, 111, 121, 131, 141, 151, 161, 171, 181, 191, 201, 211, 221, 231, 241, 251, 261, 271, 281, 291, 301, 311, 321, 331, 341, 351, 361, 371, 381, 391, 401, 411, 421, 431, 441, 451, 461, 471, 481, 491, 501, 511, 521, 531, 541, 551, 561, 571, 581, 591, 601, 611, 621, 631, 641, 651, 661, 671, 681, 691, 701, 711, 721, 731, 741, 751, 761, 771, 781, 791, 801, 811, 821, 831, 841, 851, 861, 871, 881, 891, 901, 911, 921, 931, 941, 951, 961, 971, 981, 991, 1001, 1011, 1021, 1031, 1041, 1051, 1061, 1071, 1081, 1091, 1101, 1111, 1121, 1131, 1141, 1151, 1161, 1171, 1181, 1191, 1201, 1211, 1221, 1231, 1241, 1251, 1261, 1271, 1281, 1291, 1301, 1311, 1321, 1331, 1341, 1351, 1361, 1371, 1381, 1391, 1401, 1411, 1421, 1431, 1441, 1451, 1461, 1471, 1481, 1491, 1501, 1511, 1521, 1531, 1541, 1551, 1561, 1571, 1581, 1591, 1601, 1611, 1621, 1631, 1641, 1651, 1661, 1671, 1681, 1691, 1701, 1711, 1721, 1731, 1741]","1072","1920","[960, 960, 960, 960, 960, 960, 960, 960, 960, 960, 960, 960, 960, 960, 960, 960, 960, 960, 960, 960, 960, 960, 960, 960, 960, 960, 960, 960, 960, 961, 961, 963, 965, 965, 968, 970, 977, 980, 983, 987, 994, 998, 1001, 1007, 1018, 1022, 1027, 1033, 1042, 1048, 1053, 1055, 1062, 1064, 1067, 1070, 1081, 1086, 1095, 1103, 1123, 1134, 1145, 1155, 1172, 1178, 1186, 1194, 1210, 1219, 1230, 1243, 1268, 1286, 1301, 1310, 1330, 1338, 1345, 1353, 1370, 1382, 1389, 1400, 1419, 1429, 1440, 1450, 1473, 1482, 1490, 1502, 1522, 1531, 1540, 1548, 1558, 1563, 1568, 1575, 1590, 1598, 1606, 1615, 1631, 1634, 1639, 1643, 1648, 1651, 1653, 1656, 1662, 1665, 1668, 1668, 1672, 1673, 1673, 1673, 1673, 1673, 1674, 1675, 1676, 1676, 1676, 1676, 1676, 1676, 1676, 1676, 1676, 1676, 1676, 1676, 1676, 1676, 1676, 1676, 1676, 1676, 1676, 1677, 1677, 1679, 1679, 1679, 1681, 1681, 1681, 1681, 1682, 1682, 1682, 1682, 1682, 1682, 1682, 1682, 1682, 1682, 1682, 1682, 1682, 1682, 1682, 1682, 1682, 1682, 1682, 1682, 1682, 1682]","[1010, 1010, 1010, 1010, 1010, 1010, 1010, 1010, 1010, 1010, 1010, 1010, 1010, 1010, 1010, 1010, 1010, 1010, 1010, 1010, 1010, 1010, 1010, 1010, 1010, 1010, 1010, 1010, 1009, 1008, 1006, 1003, 1000, 998, 995, 990, 979, 972, 966, 957, 936, 922, 910, 891, 852, 836, 823, 810, 793, 787, 779, 776, 765, 759, 749, 738, 702, 685, 664, 649, 622, 609, 599, 589, 572, 566, 557, 548, 527, 518, 506, 494, 470, 455, 445, 436, 420, 414, 409, 404, 391, 383, 377, 369, 351, 340, 330, 320, 298, 290, 283, 275, 260, 253, 249, 242, 230, 223, 218, 211, 198, 192, 188, 185, 177, 175, 171, 168, 166, 163, 162, 159, 155, 154, 151, 151, 148, 148, 148, 148, 148, 147, 147, 145, 145, 145, 145, 144, 144, 144, 144, 144, 144, 144, 144, 144, 144, 144, 144, 144, 144, 144, 144, 144, 144, 143, 142, 140, 133, 131, 130, 128, 127, 127, 127, 125, 124, 124, 123, 122, 121, 121, 121, 121, 121, 121, 121, 121, 121, 121, 121, 121, 121, 121]"
"Trust","Teilnehmer A hat Ihnen 2 Punkte übermittelt.","Payback","1","undefined","16","0","5","60","1080","211","5","1","966","0","legacy","[11, 21, 31, 41, 51, 61, 71, 81, 91, 101, 111, 121, 131, 141, 151, 161, 171, 181, 191, 201, 211, 221, 231, 241, 251, 261, 271, 281, 291, 301, 311, 321, 331, 341, 351, 361, 371, 381, 391, 401, 411, 421, 431, 441, 451, 461, 471, 481, 491, 501, 511, 521, 531, 541, 551, 561, 571, 581, 591, 601, 611, 621, 631, 641, 651, 661, 671, 681, 691, 701, 711, 721, 731, 741, 751, 761, 771, 781, 791, 801, 811, 821, 831, 841, 851, 861, 871, 881, 891, 901, 911, 921, 931, 941, 951, 961]","1072","1920","[960, 960, 960, 960, 960, 960, 960, 960, 960, 960, 960, 960, 960, 960, 959, 962, 967, 975, 1000, 1013, 1023, 1035, 1053, 1062, 1071, 1079, 1097, 1107, 1116, 1127, 1149, 1162, 1179, 1196, 1236, 1256, 1274, 1289, 1318, 1334, 1352, 1366, 1401, 1413, 1427, 1439, 1467, 1483, 1498, 1511, 1540, 1550, 1560, 1567, 1577, 1580, 1582, 1583, 1589, 1591, 1591, 1593, 1596, 1598, 1599, 1600, 1602, 1603, 1605, 1608, 1620, 1631, 1640, 1651, 1669, 1675, 1681, 1684, 1687, 1687, 1689, 1690, 1695, 1699, 1703, 1704, 1706, 1706, 1706, 1706, 1706, 1706, 1706, 1706, 1706, 1706]","[1010, 1010, 1010, 1010, 1010, 1010, 1010, 1010, 1010, 1010, 1010, 1010, 1010, 1010, 1008, 1001, 992, 982, 956, 941, 930, 919, 902, 893, 884, 877, 852, 836, 818, 799, 763, 746, 725, 705, 660, 637, 614, 596, 556, 534, 511, 495, 454, 439, 419, 402, 363, 340, 320, 298, 249, 233, 214, 203, 185, 179, 174, 171, 163, 160, 160, 159, 157, 155, 154, 154, 153, 152, 150, 148, 141, 135, 131, 125, 116, 114, 111, 110, 110, 110, 109, 109, 107, 106, 103, 102, 102, 102, 102, 102, 102, 102, 102, 102, 102, 102]"
"Trust","Teilnehmer A hat Ihnen 2 Punkte übermittelt.","Payback","1","undefined","17","0","5","60","1080","531","5","1","3542","0","legacy","[11, 21, 31, 41, 51, 61, 71, 81, 91, 101, 111, 121, 131, 141, 151, 161, 171, 181, 191, 201, 211, 221, 231, 241, 251, 261, 271, 281, 291, 301, 311, 321, 331, 341, 351, 361, 371, 381, 391, 401, 411, 421, 431, 441, 451, 461, 471, 481, 491, 501, 511, 521, 531, 541, 551, 561, 571, 581, 591, 601, 611, 621, 631, 641, 651, 661, 671, 681, 691, 701, 711, 721, 731, 741, 751, 761, 771, 781, 791, 801, 811, 821, 831, 841, 851, 861, 871, 881, 891, 901, 911, 921, 931, 941, 951, 961, 971, 981, 991, 1001, 1011, 1021, 1031, 1041, 1051, 1061, 1071, 1081, 1091, 1101, 1111, 1121, 1131, 1141, 1151, 1161, 1171, 1181, 1191, 1201, 1211, 1221, 1231, 1241, 1251, 1261, 1271, 1281, 1291, 1301, 1311, 1321, 1331, 1341, 1351, 1361, 1371, 1381, 1391, 1401, 1411, 1421, 1431, 1441, 1451, 1461, 1471, 1481, 1491, 1501, 1511, 1521, 1531, 1541, 1551, 1561, 1571, 1581, 1591, 1601, 1611, 1621, 1631, 1641, 1651, 1661, 1671, 1681, 1691, 1701, 1711, 1721, 1731, 1741, 1751, 1761, 1771, 1781, 1791, 1801, 1811, 1821, 1831, 1841, 1851, 1861, 1871, 1881, 1891, 1901, 1911, 1921, 1931, 1941, 1951, 1961, 1971, 1981, 1991, 2001, 2011, 2021, 2031, 2041, 2051, 2061, 2071, 2081, 2091, 2101, 2111, 2121, 2131, 2141, 2151, 2161, 2171, 2181, 2191, 2201, 2211, 2221, 2231, 2241, 2251, 2261, 2271, 2281, 2291, 2301, 2311, 2321, 2331, 2341, 2351, 2361, 2371, 2381, 2391, 2401, 2411, 2421, 2431, 2441, 2451, 2461, 2471, 2481, 2491, 2501, 2511, 2521, 2531, 2541, 2551, 2561, 2571, 2581, 2591, 2601, 2611, 2621, 2631, 2641, 2651, 2661, 2671, 2681, 2691, 2701, 2711, 2721, 2731, 2741, 2751, 2761, 2771, 2781, 2791, 2801, 2811, 2821, 2831, 2841, 2851, 2861, 2871, 2881, 2891, 2901, 2911, 2921, 2931, 2941, 2951, 2961, 2971, 2981, 2991, 3001, 3011, 3021, 3031, 3041, 3051, 3061, 3071, 3081, 3091, 3101, 3111, 3121, 3131, 3141, 3151, 3161, 3171, 3181, 3191, 3201, 3211, 3221, 3231, 3241, 3251, 3261, 3271, 3281, 3291, 3301, 3311, 3321, 3331, 3341, 3351, 3361, 3371, 3381, 3391, 3401, 3411, 3421, 3431, 3441, 3451, 3461, 3471, 3481, 3491, 3501, 3511, 3521, 3531, 3541]","1072","1920","[960, 960, 960, 960, 960, 960, 960, 960, 960, 960, 960, 960, 960, 960, 960, 960, 960, 960, 960, 960, 960, 960, 960, 960, 960, 960, 960, 960, 960, 960, 960, 960, 960, 960, 960, 960, 960, 960, 960, 960, 960, 961, 965, 968, 973, 979, 988, 993, 1000, 1007, 1021, 1028, 1038, 1046, 1064, 1074, 1082, 1090, 1100, 1105, 1109, 1113, 1121, 1126, 1129, 1132, 1141, 1145, 1148, 1152, 1157, 1159, 1162, 1166, 1172, 1177, 1179, 1181, 1185, 1189, 1190, 1193, 1199, 1203, 1208, 1211, 1220, 1225, 1227, 1231, 1240, 1246, 1250, 1256, 1270, 1278, 1286, 1294, 1305, 1309, 1313, 1315, 1316, 1316, 1316, 1316, 1316, 1316, 1316, 1316, 1316, 1316, 1316, 1316, 1316, 1316, 1316, 1316, 1316, 1316, 1316, 1316, 1316, 1316, 1316, 1316, 1316, 1316, 1316, 1316, 1316, 1316, 1316, 1316, 1316, 1316, 1316, 1316, 1316, 1316, 1316, 1316, 1316, 1316, 1316, 1316, 1316, 1316, 1316, 1316, 1316, 1316, 1316, 1316, 1316, 1316, 1316, 1316, 1316, 1316, 1316, 1316, 1316, 1316, 1316, 1316, 1317, 1318, 1320, 1322, 1326, 1328, 1330, 1332, 1340, 1345, 1348, 1354, 1361, 1364, 1367, 1368, 1375, 1375, 1378, 1380, 1385, 1387, 1389, 1392, 1396, 1398, 1401, 1402, 1406, 1408, 1409, 1413, 1421, 1425, 1431, 1435, 1445, 1450, 1454, 1458, 1464, 1468, 1470, 1472, 1479, 1481, 1483, 1486, 1491, 1493, 1495, 1499, 1502, 1504, 1506, 1507, 1514, 1516, 1519, 1522, 1528, 1533, 1539, 1545, 1557, 1563, 1569, 1573, 1586, 1589, 1593, 1596, 1602, 1607, 1612, 1616, 1627, 1631, 1636, 1637, 1641, 1642, 1645, 1646, 1651, 1651, 1654, 1655, 1661, 1662, 1666, 1668, 1673, 1673, 1674, 1674, 1676, 1677, 1677, 1679, 1680, 1680, 1680, 1681, 1681, 1681, 1681, 1681, 1682, 1684, 1686, 1687, 1691, 1693, 1693, 1694, 1694, 1694, 1694, 1694, 1694, 1694, 1694, 1694, 1694, 1694, 1694, 1694, 1694, 1694, 1694, 1694, 1694, 1694, 1694, 1694, 1694, 1694, 1694, 1694, 1694, 1694, 1694, 1694, 1696, 1698, 1698, 1698, 1698, 1698, 1698, 1698, 1698, 1698, 1698, 1698, 1698, 1698, 1698, 1698, 1698, 1698, 1698, 1698, 1698, 1698, 1698, 1698, 1698, 1698, 1698, 1698, 1698, 1698, 1698, 1698, 1698, 1698, 1698, 1698, 1698, 1698, 1698, 1698, 1698, 1698, 1698, 1698]","[1010, 1010, 1010, 1010, 1010, 1010, 1010, 1010, 1010, 1010, 1010, 1010, 1010, 1010, 1010, 1010, 1010, 1010, 1010, 1010, 1010, 1010, 1010, 1010, 1010, 1010, 1010, 1010, 1010, 1010, 1010, 1010, 1010, 1010, 1010, 1010, 1010, 1010, 1010, 1010, 1009, 1007, 1003, 1000, 996, 992, 984, 981, 976, 970, 952, 943, 930, 920, 903, 896, 890, 885, 875, 871, 866, 861, 849, 840, 833, 823, 806, 798, 792, 786, 776, 771, 765, 758, 744, 734, 725, 718, 701, 691, 683, 674, 657, 648, 637, 631, 619, 611, 608, 602, 588, 579, 570, 559, 524, 504, 486, 470, 447, 438, 430, 427, 424, 424, 423, 423, 423, 423, 423, 423, 423, 423, 423, 423, 423, 423, 423, 423, 423, 423, 423, 423, 423, 423, 423, 423, 423, 423, 423, 423, 423, 423, 423, 423, 423, 423, 423, 423, 423, 423, 423, 423, 423, 423, 423, 423, 423, 423, 423, 423, 423, 423, 423, 423, 423, 423, 423, 423, 423, 423, 423, 423, 423, 423, 423, 423, 422, 421, 419, 417, 412, 410, 408, 404, 397, 393, 390, 383, 375, 370, 366, 364, 356, 354, 351, 349, 342, 338, 334, 331, 321, 319, 316, 314, 308, 306, 305, 301, 293, 291, 286, 282, 272, 266, 262, 257, 250, 246, 242, 241, 234, 231, 231, 228, 225, 223, 222, 219, 218, 217, 216, 214, 211, 209, 207, 205, 202, 198, 197, 194, 189, 186, 184, 183, 176, 174, 171, 170, 166, 165, 162, 160, 153, 151, 148, 147, 144, 143, 141, 140, 137, 136, 135, 133, 130, 129, 127, 127, 125, 124, 123, 123, 123, 122, 122, 121, 120, 120, 120, 119, 119, 119, 119, 119, 118, 116, 115, 115, 112, 111, 111, 111, 110, 110, 110, 110, 110, 110, 110, 110, 110, 110, 110, 110, 110, 110, 110, 110, 110, 110, 110, 110, 110, 110, 110, 110, 110, 110, 110, 110, 110, 110, 110, 109, 109, 109, 109, 109, 109, 109, 109, 109, 109, 109, 109, 109, 109, 109, 109, 109, 109, 109, 109, 109, 109, 109, 109, 109, 109, 109, 109, 109, 109, 109, 109, 109, 109, 109, 109, 109, 109, 109, 109, 109]"
"Promise","Wie oft werden Sie die Hälfte zurückgeben?","Promise","0","undefined","17","0","6","60","1080","161","5","2","639","0","legacy","[11, 21, 31, 41, 51, 61, 71, 81, 91, 101, 111, 121, 131, 141, 151, 161, 171, 181, 191, 201, 211, 221, 231, 241, 251, 261, 271, 281, 291, 301, 311, 321, 331, 341, 351, 361, 371, 381, 391, 401, 411, 421, 431, 441, 451, 461, 471, 481, 491, 501, 511, 521, 531, 541, 551, 561, 571, 581, 591, 601, 611, 621, 631]","1072","1920","[960, 960, 960, 960, 960, 960, 960, 960, 960, 960, 960, 956, 949, 937, 916, 867, 838, 812, 788, 730, 704, 675, 643, 570, 531, 496, 461, 408, 390, 375, 367, 339, 323, 309, 296, 263, 253, 247, 243, 239, 234, 233, 232, 230, 229, 228, 227, 224, 222, 220, 219, 217, 217, 217, 217, 217, 217, 217, 217, 217, 217, 217, 217]","[1010, 1010, 1010, 1010, 1010, 1010, 1010, 1010, 1010, 1010, 1010, 1003, 996, 986, 968, 925, 904, 881, 859, 809, 786, 759, 728, 646, 598, 555, 505, 428, 397, 377, 362, 320, 297, 275, 253, 203, 184, 169, 158, 136, 126, 122, 116, 109, 107, 104, 103, 99, 95, 92, 89, 87, 87, 87, 87, 87, 87, 87, 87, 87, 87, 87, 87]"
"Trust","Teilnehmer A hat Ihnen 2 Punkte übermittelt.","Payback","0","undefined","18","0","6","60","1080","291","10","2","2789","0","legacy","[11, 21, 31, 41, 51, 61, 71, 81, 91, 101, 111, 121, 131, 141, 151, 161, 171, 181, 191, 201, 211, 221, 231, 241, 251, 261, 271, 281, 291, 301, 311, 321, 331, 341, 351, 361, 371, 381, 391, 401, 411, 421, 431, 441, 451, 461, 471, 481, 491, 501, 511, 521, 531, 541, 551, 561, 571, 581, 591, 601, 611, 621, 631, 641, 651, 661, 671, 681, 691, 701, 711, 721, 731, 741, 751, 761, 771, 781, 791, 801, 811, 821, 831, 841, 851, 861, 871, 881, 891, 901, 911, 921, 931, 941, 951, 961, 971, 981, 991, 1001, 1011, 1021, 1031, 1041, 1051, 1061, 1071, 1081, 1091, 1101, 1111, 1121, 1131, 1141, 1151, 1161, 1171, 1181, 1191, 1201, 1211, 1221, 1231, 1241, 1251, 1261, 1271, 1281, 1291, 1301, 1311, 1321, 1331, 1341, 1351, 1361, 1371, 1381, 1391, 1401, 1411, 1421, 1431, 1441, 1451, 1461, 1471, 1481, 1491, 1501, 1511, 1521, 1531, 1541, 1551, 1561, 1571, 1581, 1591, 1601, 1611, 1621, 1631, 1641, 1651, 1661, 1671, 1681, 1691, 1701, 1711, 1721, 1731, 1741, 1751, 1761, 1771, 1781, 1791, 1801, 1811, 1821, 1831, 1841, 1851, 1861, 1871, 1881, 1891, 1901, 1911, 1921, 1931, 1941, 1951, 1961, 1971, 1981, 1991, 2001, 2011, 2021, 2031, 2041, 2051, 2061, 2071, 2081, 2091, 2101, 2111, 2121, 2131, 2141, 2151, 2161, 2171, 2181, 2191, 2201, 2211, 2221, 2231, 2241, 2251, 2261, 2271, 2281, 2291, 2301, 2311, 2321, 2331, 2341, 2351, 2361, 2371, 2381, 2391, 2401, 2411, 2421, 2431, 2441, 2451, 2461, 2471, 2481, 2491, 2501, 2511, 2521, 2531, 2541, 2551, 2561, 2571, 2581, 2591, 2601, 2611, 2621, 2631, 2641, 2651, 2661, 2671, 2681, 2691, 2701, 2711, 2721, 2731, 2741, 2751, 2761, 2771, 2781]","1072","1920","[960, 960, 960, 960, 960, 960, 960, 960, 960, 960, 960, 960, 960, 960, 960, 960, 960, 961, 964, 968, 971, 972, 977, 979, 983, 986, 996, 1002, 1009, 1014, 1025, 1031, 1037, 1041, 1051, 1057, 1062, 1070, 1084, 1094, 1100, 1105, 1116, 1124, 1127, 1136, 1149, 1155, 1163, 1174, 1196, 1210, 1222, 1241, 1268, 1278, 1295, 1305, 1323, 1333, 1342, 1353, 1371, 1380, 1392, 1402, 1428, 1438, 1448, 1460, 1476, 1481, 1488, 1495, 1505, 1511, 1517, 1521, 1531, 1536, 1539, 1544, 1551, 1552, 1554, 1556, 1560, 1563, 1565, 1567, 1573, 1577, 1578, 1580, 1586, 1589, 1590, 1593, 1597, 1599, 1599, 1602, 1605, 1606, 1607, 1609, 1613, 1615, 1619, 1624, 1634, 1637, 1641, 1646, 1654, 1657, 1661, 1663, 1671, 1674, 1678, 1680, 1686, 1688, 1689, 1690, 1692, 1692, 1693, 1693, 1694, 1694, 1694, 1694, 1694, 1694, 1694, 1694, 1694, 1694, 1694, 1694, 1694, 1694, 1694, 1694, 1694, 1694, 1694, 1694, 1694, 1694, 1694, 1694, 1694, 1694, 1694, 1694, 1694, 1694, 1694, 1694, 1685, 1680, 1675, 1674, 1668, 1667, 1663, 1656, 1642, 1633, 1625, 1616, 1601, 1595, 1589, 1581, 1563, 1550, 1540, 1527, 1493, 1474, 1449, 1430, 1409, 1399, 1384, 1366, 1325, 1307, 1293, 1285, 1273, 1267, 1264, 1258, 1251, 1245, 1241, 1238, 1231, 1229, 1223, 1217, 1200, 1191, 1180, 1169, 1143, 1129, 1115, 1103, 1070, 1052, 1031, 1004, 945, 924, 899, 879, 842, 821, 804, 783, 712, 689, 664, 649, 621, 609, 597, 587, 568, 559, 550, 543, 520, 506, 489, 471, 431, 414, 397, 377, 342, 323, 308, 289, 245, 229, 214, 203, 185, 177, 170, 161, 151, 148, 146, 145, 143, 143, 143, 143, 143, 143, 143, 143, 143, 143, 143, 143, 143, 143, 143, 143]","[1010, 1010, 1010, 1010, 1010, 1010, 1010, 1010, 1010, 1010, 1010, 1010, 1010, 1010, 1010, 1010, 1010, 1010, 1008, 1004, 998, 993, 981, 975, 970, 964, 950, 942, 929, 914, 889, 878, 867, 860, 846, 839, 830, 821, 801, 785, 770, 757, 727, 710, 696, 681, 660, 648, 639, 630, 610, 597, 587, 569, 540, 530, 513, 503, 486, 478, 470, 461, 443, 434, 422, 411, 384, 375, 367, 359, 347, 343, 340, 334, 325, 320, 316, 312, 304, 299, 296, 291, 282, 279, 275, 272, 264, 260, 257, 255, 248, 243, 240, 237, 231, 227, 226, 221, 215, 213, 210, 207, 203, 202, 200, 197, 193, 190, 186, 181, 172, 169, 165, 160, 150, 145, 141, 137, 126, 122, 119, 117, 112, 111, 110, 109, 107, 106, 105, 103, 103, 103, 103, 103, 103, 103, 103, 103, 103, 103, 103, 103, 103, 103, 103, 103, 103, 103, 103, 103, 103, 103, 103, 103, 103, 103, 103, 103, 103, 103, 103, 103, 108, 114, 119, 121, 128, 129, 132, 136, 141, 144, 149, 152, 158, 160, 163, 165, 171, 173, 174, 175, 181, 186, 190, 194, 200, 201, 202, 206, 208, 211, 213, 214, 218, 218, 219, 221, 222, 222, 223, 223, 225, 226, 228, 230, 234, 237, 241, 243, 250, 252, 256, 258, 267, 268, 272, 275, 279, 280, 280, 280, 280, 280, 279, 276, 263, 261, 256, 254, 249, 246, 242, 238, 230, 226, 220, 216, 208, 203, 198, 197, 190, 189, 185, 184, 177, 173, 172, 169, 157, 155, 150, 146, 141, 138, 134, 131, 126, 124, 122, 121, 120, 120, 119, 119, 119, 119, 119, 119, 119, 119, 119, 119, 119, 119, 119, 119]"
"Trust","Teilnehmer A hat Ihnen 2 Punkte übermittelt.","Payback","1","undefined","19","0","6","60","1080","251","5","1","1143","0","legacy","[11, 21, 31, 41, 51, 61, 71, 81, 91, 101, 111, 121, 131, 141, 151, 161, 171, 181, 191, 201, 211, 221, 231, 241, 251, 261, 271, 281, 291, 301, 311, 321, 331, 341, 351, 361, 371, 381, 391, 401, 411, 421, 431, 441, 451, 461, 471, 481, 491, 501, 511, 521, 531, 541, 551, 561, 571, 581, 591, 601, 611, 621, 631, 641, 651, 661, 671, 681, 691, 701, 711, 721, 731, 741, 751, 761, 771, 781, 791, 801, 811, 821, 831, 841, 851, 861, 871, 881, 891, 901, 911, 921, 931, 941, 951, 961, 971, 981, 991, 1001, 1011, 1021, 1031, 1041, 1051, 1061, 1071, 1081, 1091, 1101, 1111, 1121, 1131, 1141]","1072","1920","[960, 960, 960, 960, 960, 960, 960, 960, 960, 960, 959, 959, 959, 959, 959, 959, 959, 959, 959, 960, 968, 977, 1000, 1009, 1023, 1036, 1065, 1079, 1098, 1117, 1161, 1180, 1198, 1222, 1256, 1275, 1289, 1295, 1310, 1313, 1317, 1321, 1332, 1337, 1343, 1348, 1357, 1361, 1363, 1366, 1371, 1375, 1379, 1386, 1411, 1423, 1434, 1443, 1452, 1465, 1469, 1470, 1473, 1476, 1482, 1487, 1497, 1521, 1533, 1540, 1548, 1559, 1565, 1573, 1584, 1606, 1612, 1619, 1625, 1635, 1637, 1640, 1642, 1648, 1651, 1653, 1654, 1655, 1655, 1655, 1655, 1655, 1655, 1655, 1655, 1655, 1657, 1657, 1657, 1657, 1657, 1657, 1657, 1657, 1657, 1657, 1657, 1657, 1657, 1657, 1657, 1657, 1657, 1657]","[1010, 1010, 1010, 1010, 1010, 1010, 1010, 1010, 1010, 1010, 1010, 1009, 1009, 1009, 1009, 1009, 1009, 1009, 1005, 1001, 994, 985, 960, 946, 928, 911, 871, 856, 837, 816, 771, 750, 727, 696, 650, 625, 609, 597, 570, 560, 550, 539, 516, 504, 489, 476, 451, 438, 429, 420, 404, 396, 387, 376, 346, 334, 321, 311, 302, 286, 280, 278, 275, 268, 263, 259, 252, 236, 230, 222, 214, 202, 195, 188, 181, 169, 166, 163, 159, 150, 148, 142, 139, 128, 123, 120, 118, 116, 116, 116, 115, 115, 115, 115, 113, 108, 106, 105, 104, 104, 104, 104, 104, 104, 104, 104, 104, 104, 104, 104, 104, 104, 104, 104]"
"Trust","Teilnehmer A hat Ihnen 2 Punkte übermittelt.","Payback","0","undefined","20","0","6","60","1080","311","10","2","1622","0","legacy","[11, 21, 31, 41, 51, 61, 71, 81, 91, 101, 111, 121, 131, 141, 151, 161, 171, 181, 191, 201, 211, 221, 231, 241, 251, 261, 271, 281, 291, 301, 311, 321, 331, 341, 351, 361, 371, 381, 391, 401, 411, 421, 431, 441, 451, 461, 471, 481, 491, 501, 511, 521, 531, 541, 551, 561, 571, 581, 591, 601, 611, 621, 631, 641, 651, 661, 671, 681, 691, 701, 711, 721, 731, 741, 751, 761, 771, 781, 791, 801, 811, 821, 831, 841, 851, 861, 871, 881, 891, 901, 911, 921, 931, 941, 951, 961, 971, 981, 991, 1001, 1011, 1021, 1031, 1041, 1051, 1061, 1071, 1081, 1091, 1101, 1111, 1121, 1131, 1141, 1151, 1161, 1171, 1181, 1191, 1201, 1211, 1221, 1231, 1241, 1251, 1261, 1271, 1281, 1291, 1301, 1311, 1321, 1331, 1341, 1351, 1361, 1371, 1381, 1391, 1401, 1411, 1421, 1431, 1441, 1451, 1461, 1471, 1481, 1491, 1501, 1511, 1521, 1531, 1541, 1551, 1561, 1571, 1581, 1591, 1601, 1611, 1621]","1072","1920","[960, 960, 960, 960, 960, 960, 960, 960, 960, 960, 960, 960, 960, 960, 960, 960, 960, 960, 960, 960, 960, 960, 959, 958, 956, 953, 943, 939, 930, 920, 896, 880, 864, 850, 834, 830, 825, 824, 820, 817, 815, 814, 805, 800, 793, 786, 769, 758, 749, 737, 720, 711, 701, 689, 665, 650, 636, 625, 600, 587, 579, 567, 543, 531, 521, 511, 493, 484, 474, 466, 448, 440, 430, 424, 409, 402, 395, 390, 380, 379, 376, 374, 369, 366, 364, 361, 354, 352, 346, 343, 332, 325, 319, 311, 297, 290, 287, 284, 279, 276, 273, 269, 254, 246, 241, 238, 235, 235, 235, 235, 235, 234, 234, 234, 234, 234, 234, 234, 234, 234, 234, 234, 234, 234, 234, 234, 234, 234, 234, 234, 234, 234, 234, 234, 234, 234, 234, 234, 234, 234, 234, 234, 234, 234, 234, 234, 234, 234, 234, 234, 234, 234, 234, 234, 234, 234, 234, 234, 234, 234, 234, 234]","[1010, 1010, 1010, 1010, 1010, 1010, 1010, 1010, 1010, 1010, 1010, 1010, 1010, 1010, 1010, 1010, 1010, 1010, 1010, 1010, 1010, 1010, 1010, 1008, 1006, 1000, 984, 973, 959, 941, 900, 877, 855, 835, 812, 802, 794, 786, 773, 764, 759, 750, 733, 723, 711, 698, 675, 659, 645, 628, 594, 580, 561, 542, 504, 486, 464, 451, 414, 397, 386, 370, 340, 325, 313, 301, 279, 265, 253, 241, 212, 198, 186, 176, 151, 140, 130, 122, 108, 105, 100, 98, 94, 91, 91, 89, 87, 86, 86, 86, 82, 81, 80, 78, 77, 77, 77, 77, 77, 77, 77, 76, 76, 75, 75, 75, 75, 75, 75, 75, 75, 75, 75, 75, 75, 75, 75, 75, 75, 75, 75, 75, 75, 75, 75, 75, 75, 75, 75, 75, 75, 75, 75, 75, 75, 75, 75, 75, 75, 75, 75, 75, 75, 75, 75, 75, 75, 75, 75, 75, 75, 75, 75, 75, 75, 75, 75, 75, 75, 75, 75, 75]"
"Promise","Wie oft werden Sie die Hälfte zurückgeben?","Promise","1","undefined","20","0","7","60","1080","251","10","1","817","0","legacy","[11, 21, 31, 41, 51, 61, 71, 81, 91, 101, 111, 121, 131, 141, 151, 161, 171, 181, 191, 201, 211, 221, 231, 241, 251, 261, 271, 281, 291, 301, 311, 321, 331, 341, 351, 361, 371, 381, 391, 401, 411, 421, 431, 441, 451, 461, 471, 481, 491, 501, 511, 521, 531, 541, 551, 561, 571, 581, 591, 601, 611, 621, 631, 641, 651, 661, 671, 681, 691, 701, 711, 721, 731, 741, 751, 761, 771, 781, 791, 801, 811]","1072","1920","[960, 960, 960, 960, 960, 960, 960, 960, 960, 960, 960, 960, 960, 960, 960, 960, 960, 960, 962, 969, 984, 991, 1001, 1008, 1026, 1035, 1045, 1055, 1079, 1093, 1106, 1126, 1170, 1191, 1220, 1246, 1301, 1329, 1353, 1379, 1426, 1451, 1469, 1486, 1521, 1537, 1552, 1569, 1601, 1626, 1650, 1674, 1727, 1754, 1772, 1787, 1811, 1820, 1829, 1841, 1864, 1877, 1885, 1891, 1895, 1895, 1895, 1895, 1895, 1895, 1895, 1895, 1895, 1895, 1895, 1895, 1895, 1895, 1895, 1895, 1895]","[1010, 1010, 1010, 1010, 1010, 1010, 1010, 1010, 1010, 1010, 1010, 1010, 1010, 1010, 1010, 1010, 1007, 1002, 996, 986, 967, 958, 949, 941, 924, 916, 907, 895, 868, 850, 833, 809, 764, 745, 720, 697, 649, 628, 608, 587, 541, 517, 494, 473, 432, 414, 396, 378, 339, 313, 289, 265, 217, 190, 172, 154, 127, 116, 106, 95, 75, 66, 61, 57, 54, 53, 53, 53, 53, 53, 53, 53, 53, 53, 53, 53, 53, 53, 53, 53, 53]"
"Trust","Teilnehmer A hat Ihnen 2 Punkte übermittelt.","Payback","1","undefined","21","0","7","60","1080","201","5","1","703","0","legacy","[11, 21, 31, 41, 51, 61, 71, 81, 91, 101, 111, 121, 131, 141, 151, 161, 171, 181, 191, 201, 211, 221, 231, 241, 251, 261, 271, 281, 291, 301, 311, 321, 331, 341, 351, 361, 371, 381, 391, 401, 411, 421, 431, 441, 451, 461, 471, 481, 491, 501, 511, 521, 531, 541, 551, 561, 571, 581, 591, 601, 611, 621, 631, 641, 651, 661, 671, 681, 691, 701]","1072","1920","[960, 960, 960, 960, 960, 960, 961, 962, 962, 962, 962, 962, 962, 962, 962, 967, 973, 979, 986, 1017, 1041, 1063, 1085, 1135, 1162, 1190, 1217, 1280, 1319, 1352, 1386, 1444, 1472, 1498, 1516, 1545, 1561, 1575, 1590, 1613, 1630, 1638, 1648, 1659, 1663, 1665, 1667, 1672, 1677, 1681, 1683, 1689, 1690, 1692, 1692, 1694, 1694, 1696, 1697, 1701, 1703, 1704, 1707, 1709, 1711, 1712, 1712, 1712, 1712, 1712]","[1010, 1010, 1010, 1010, 1010, 1010, 1010, 1009, 1009, 1009, 1009, 1009, 1009, 1009, 1006, 999, 992, 981, 970, 925, 892, 861, 827, 762, 728, 694, 658, 584, 541, 501, 463, 400, 370, 344, 323, 287, 267, 252, 234, 207, 188, 180, 169, 155, 149, 146, 142, 134, 129, 125, 123, 118, 116, 115, 114, 112, 111, 109, 108, 102, 100, 97, 95, 90, 87, 86, 86, 86, 86, 86]"
"Trust","Teilnehmer A hat Ihnen 2 Punkte übermittelt.","Payback","1","undefined","22","0","7","60","1080","551","5","1","1070","0","legacy","[11, 21, 31, 41, 51, 61, 71, 81, 91, 101, 111, 121, 131, 141, 151, 161, 171, 181, 191, 201, 211, 221, 231, 241, 251, 261, 271, 281, 291, 301, 311, 321, 331, 341, 351, 361, 371, 381, 391, 401, 411, 421, 431, 441, 451, 461, 471, 481, 491, 501, 511, 521, 531, 541, 551, 561, 571, 581, 591, 601, 611, 621, 631, 641, 651, 661, 671, 681, 691, 701, 711, 721, 731, 741, 751, 761, 771, 781, 791, 801, 811, 821, 831, 841, 851, 861, 871, 881, 891, 901, 911, 921, 931, 941, 951, 961, 971, 981, 991, 1001, 1011, 1021, 1031, 1041, 1051, 1061]","1072","1920","[960, 960, 960, 960, 960, 960, 960, 960, 960, 960, 960, 960, 960, 960, 960, 960, 960, 960, 960, 960, 960, 960, 960, 960, 960, 960, 960, 960, 960, 960, 960, 960, 960, 960, 960, 960, 960, 960, 963, 974, 986, 994, 1001, 1004, 1007, 1009, 1012, 1012, 1012, 1012, 1014, 1019, 1028, 1040, 1069, 1087, 1108, 1130, 1179, 1209, 1238, 1267, 1324, 1346, 1363, 1371, 1388, 1396, 1405, 1417, 1446, 1462, 1482, 1506, 1558, 1584, 1605, 1623, 1653, 1674, 1690, 1710, 1748, 1762, 1770, 1776, 1785, 1788, 1790, 1793, 1798, 1803, 1804, 1807, 1809, 1809, 1809, 1809, 1809, 1809, 1809, 1809, 1809, 1809, 1809, 1809]","[1010, 1010, 1010, 1010, 1010, 1010, 1010, 1010, 1010, 1010, 1010, 1010, 1010, 1010, 1010, 1010, 1010, 1010, 1010, 1010, 1010, 1010, 1010, 1010, 1010, 1010, 1010, 1010, 1010, 1010, 1010, 1010, 1010, 1010, 1010, 1010, 1010, 1010, 1012, 1016, 1019, 1022, 1023, 1023, 1023, 1023, 1023, 1022, 1019, 1015, 1000, 989, 974, 961, 919, 896, 873, 846, 786, 757, 731, 708, 659, 638, 617, 606, 577, 556, 535, 506, 452, 430, 406, 382, 339, 316, 299, 282, 253, 231, 215, 200, 170, 161, 154, 148, 137, 132, 128, 124, 114, 107, 103, 99, 92, 89, 86, 84, 79, 77, 77, 75, 75, 75, 75, 75]"
"Trust","Teilnehmer A hat Ihnen 2 Punkte übermittelt.","Payback","0","undefined","23","0","7","60","1080","891","10","2","1862","0","legacy","[11, 21, 31, 41, 51, 61, 71, 81, 91, 101, 111, 121, 131, 141, 151, 161, 171, 181, 191, 201, 211, 221, 231, 241, 251, 261, 271, 281, 291, 301, 311, 321, 331, 341, 351, 361, 371, 381, 391, 401, 411, 421, 431, 441, 451, 461, 471, 481, 491, 501, 511, 521, 531, 541, 551, 561, 571, 581, 591, 601, 611, 621, 631, 641, 651, 661, 671, 681, 691, 701, 711, 721, 731, 741, 751, 761, 771, 781, 791, 801, 811, 821, 831, 841, 851, 861, 871, 881, 891, 901, 911, 921, 931, 941, 951, 961, 971, 981, 991, 1001, 1011, 1021, 1031, 1041, 1051, 1061, 1071, 1081, 1091, 1101, 1111, 1121, 1131, 1141, 1151, 1161, 1171, 1181, 1191, 1201, 1211, 1221, 1231, 1241, 1251, 1261, 1271, 1281, 1291, 1301, 1311, 1321, 1331, 1341, 1351, 1361, 1371, 1381, 1391, 1401, 1411, 1421, 1431, 1441, 1451, 1461, 1471, 1481, 1491, 1501, 1511, 1521, 1531, 1541, 1551, 1561, 1571, 1581, 1591, 1601, 1611, 1621, 1631, 1641, 1651, 1661, 1671, 1681, 1691, 1701, 1711, 1721, 1731, 1741, 1751, 1761, 1771, 1781, 1791, 1801, 1811, 1821, 1831, 1841, 1851, 1861]","1072","1920","[960, 960, 960, 960, 960, 960, 960, 960, 960, 960, 960, 960, 960, 960, 960, 960, 960, 960, 960, 960, 960, 960, 960, 960, 960, 960, 960, 960, 960, 960, 960, 960, 960, 960, 960, 960, 960, 960, 960, 960, 960, 960, 960, 960, 960, 960, 960, 960, 960, 960, 960, 960, 960, 960, 960, 960, 960, 960, 960, 960, 960, 960, 960, 960, 960, 960, 960, 960, 960, 960, 960, 960, 960, 960, 960, 960, 960, 960, 960, 960, 960, 960, 959, 958, 957, 954, 952, 949, 948, 946, 940, 935, 928, 924, 917, 915, 913, 911, 906, 906, 902, 900, 890, 886, 879, 871, 860, 858, 853, 849, 844, 841, 835, 829, 813, 804, 792, 785, 771, 762, 755, 746, 731, 726, 716, 707, 683, 674, 667, 661, 654, 649, 646, 642, 632, 627, 622, 615, 603, 598, 592, 588, 578, 574, 565, 553, 517, 495, 472, 453, 402, 376, 350, 315, 273, 254, 239, 223, 198, 189, 183, 179, 178, 178, 176, 176, 176, 176, 176, 176, 176, 176, 176, 176, 176, 176, 176, 176, 176, 176, 176, 176, 175, 175, 175, 175]","[1010, 1010, 1010, 1010, 1010, 1010, 1010, 1010, 1010, 1010, 1010, 1010, 1010, 1010, 1010, 1010, 1010, 1010, 1010, 1010, 1010, 1010, 1010, 1010, 1010, 1010, 1010, 1010, 1010, 1010, 1010, 1010, 1010, 1010, 1010, 1010, 1010, 1010, 1010, 1010, 1010, 1010, 1010, 1010, 1010, 1010, 1010, 1010, 1010, 1010, 1009, 1009, 1009, 1008, 1007, 1007, 1006, 1006, 1005, 1004, 1004, 1004, 1003, 1003, 1003, 1003, 1003, 1003, 1002, 1002, 1002, 1001, 1000, 1000, 999, 999, 997, 995, 991, 988, 984, 981, 971, 965, 961, 955, 944, 940, 932, 925, 907, 896, 881, 871, 853, 849, 844, 841, 830, 826, 817, 807, 777, 755, 732, 707, 670, 657, 644, 630, 599, 584, 561, 539, 493, 475, 456, 443, 421, 409, 398, 387, 366, 356, 344, 328, 302, 292, 284, 276, 262, 253, 246, 234, 218, 211, 206, 200, 191, 187, 185, 182, 181, 179, 179, 179, 179, 179, 179, 179, 179, 176, 174, 169, 162, 159, 157, 154, 151, 150, 148, 146, 145, 145, 145, 145, 144, 144, 143, 142, 140, 139, 139, 139, 139, 139, 139, 139, 139, 139, 139, 139, 139, 139, 139, 139]"
CHF,TotCHF,final_payoff,sum
"12.5","32.5","[5, 5, 10, 5]","25"
