Condition,PromiseStage,Stage,accuracy,avg_rt,count_decision_sequence,count_loop1,count_trial_sequence,font_size,height,init_time,payoff,response,rt,subject_nr,synth_backend,tTrajectory,time_experiment,width,xTrajectory,yTrajectory
"Promise","Wie oft werden Sie die Hälfte zurückgeben?","Promise","1","undefined","NA","0","0","60","1080","321","NA","1","1870","0","legacy","[11, 21, 31, 41, 51, 61, 71, 81, 91, 101, 111, 121, 131, 141, 151, 161, 171, 181, 191, 201, 211, 221, 231, 241, 251, 261, 271, 281, 291, 301, 311, 321, 331, 341, 351, 361, 371, 381, 391, 401, 411, 421, 431, 441, 451, 461, 471, 481, 491, 501, 511, 521, 531, 541, 551, 561, 571, 581, 591, 601, 611, 621, 631, 641, 651, 661, 671, 681, 691, 701, 711, 721, 731, 741, 751, 761, 771, 781, 791, 801, 811, 821, 831, 841, 851, 861, 871, 881, 891, 901, 911, 921, 931, 941, 951, 961, 971, 981, 991, 1001, 1011, 1021, 1031, 1041, 1051, 1061, 1071, 1081, 1091, 1101, 1111, 1121, 1131, 1141, 1151, 1161, 1171, 1181, 1191, 1201, 1211, 1221, 1231, 1241, 1251, 1261, 1271, 1281, 1291, 1301, 1311, 1321, 1331, 1341, 1351, 1361, 1371, 1381, 1391, 1401, 1411, 1421, 1431, 1441, 1451, 1461, 1471, 1481, 1491, 1501, 1511, 1521, 1531, 1541, 1551, 1561, 1571, 1581, 1591, 1601, 1611, 1621, 1631, 1641, 1651, 1661, 1671, 1681, 1691, 1701, 1711, 1721, 1731, 1741, 1751, 1761, 1771, 1781, 1791, 1801, 1811, 1821, 1831, 1841, 1851, 1861]","1051","1920","[960, 960, 960, 960, 960, 960, 960, 960, 960, 960, 960, 960, 960, 960, 960, 960, 961, 963, 963, 964, 964, 964, 964, 965, 965, 966, 967, 968, 969, 969, 972, 973, 973, 973, 973, 973, 973, 973, 975, 975, 975, 975, 975, 975, 975, 975, 975, 975, 974, 972, 966, 964, 961, 956, 949, 946, 944, 941, 935, 933, 930, 925, 918, 912, 908, 903, 894, 892, 889, 886, 883, 879, 874, 870, 860, 855, 852, 847, 839, 836, 832, 826, 819, 814, 811, 809, 807, 805, 804, 803, 801, 799, 798, 795, 791, 789, 783, 780, 770, 765, 759, 755, 747, 744, 740, 736, 730, 727, 723, 718, 710, 706, 702, 698, 690, 686, 683, 679, 674, 671, 665, 661, 649, 640, 629, 619, 595, 582, 571, 561, 542, 533, 528, 521, 506, 497, 489, 480, 472, 466, 455, 444, 421, 411, 399, 387, 369, 358, 352, 342, 320, 309, 299, 291, 271, 264, 255, 246, 227, 218, 211, 204, 198, 195, 194, 193, 191, 190, 188, 187, 186, 186, 186, 186, 185, 184, 184, 183, 181, 181, 178, 177, 177, 177, 177, 177]","[1010, 1010, 1010, 1010, 1010, 1010, 1010, 1010, 1010, 1010, 1010, 1010, 1010, 1010, 1007, 1006, 1004, 1002, 999, 998, 997, 996, 993, 991, 988, 985, 978, 973, 968, 962, 947, 937, 929, 916, 895, 884, 872, 862, 840, 832, 824, 814, 803, 798, 793, 790, 777, 771, 766, 760, 745, 738, 731, 719, 703, 697, 691, 684, 675, 666, 660, 653, 639, 632, 624, 618, 607, 604, 601, 597, 593, 589, 583, 578, 568, 564, 560, 556, 549, 545, 540, 534, 524, 519, 516, 512, 508, 505, 503, 502, 498, 497, 494, 490, 483, 477, 471, 464, 448, 442, 433, 428, 417, 413, 408, 403, 394, 391, 387, 381, 368, 364, 357, 351, 343, 339, 335, 334, 329, 326, 323, 320, 314, 310, 306, 300, 287, 281, 277, 271, 264, 259, 255, 252, 243, 237, 232, 227, 223, 219, 213, 206, 195, 190, 185, 180, 174, 169, 166, 162, 153, 149, 146, 144, 138, 135, 133, 129, 120, 118, 115, 114, 112, 110, 110, 110, 109, 108, 107, 106, 106, 106, 106, 106, 105, 104, 104, 103, 102, 102, 101, 101, 100, 100, 100, 100]"
Cond,DecisionB,Stage,accuracy,avg_rt,count_decision_sequence,count_loop1,count_trial_sequence,font_size,height,init_time,payoff,response,rt,subject_nr,synth_backend,tTrajectory,time_experiment,width,xTrajectory,yTrajectory
"NoTrust","Teilnehmer A hat Ihnen keine 2 Punkte übermittelt.","Payback","1","undefined","0","0","0","60","1080","321","0","1","1870","0","legacy","[11, 21, 31, 41, 51, 61, 71, 81, 91, 101, 111, 121, 131, 141, 151, 161, 171, 181, 191, 201, 211, 221, 231, 241, 251, 261, 271, 281, 291, 301, 311, 321, 331, 341, 351, 361, 371, 381, 391, 401, 411, 421, 431, 441, 451, 461, 471, 481, 491, 501, 511, 521, 531, 541, 551, 561, 571, 581, 591, 601, 611, 621, 631, 641, 651, 661, 671, 681, 691, 701, 711, 721, 731, 741, 751, 761, 771, 781, 791, 801, 811, 821, 831, 841, 851, 861, 871, 881, 891, 901, 911, 921, 931, 941, 951, 961, 971, 981, 991, 1001, 1011, 1021, 1031, 1041, 1051, 1061, 1071, 1081, 1091, 1101, 1111, 1121, 1131, 1141, 1151, 1161, 1171, 1181, 1191, 1201, 1211, 1221, 1231, 1241, 1251, 1261, 1271, 1281, 1291, 1301, 1311, 1321, 1331, 1341, 1351, 1361, 1371, 1381, 1391, 1401, 1411, 1421, 1431, 1441, 1451, 1461, 1471, 1481, 1491, 1501, 1511, 1521, 1531, 1541, 1551, 1561, 1571, 1581, 1591, 1601, 1611, 1621, 1631, 1641, 1651, 1661, 1671, 1681, 1691, 1701, 1711, 1721, 1731, 1741, 1751, 1761, 1771, 1781, 1791, 1801, 1811, 1821, 1831, 1841, 1851, 1861]","1051","1920","[960, 960, 960, 960, 960, 960, 960, 960, 960, 960, 960, 960, 960, 960, 960, 960, 961, 963, 963, 964, 964, 964, 964, 965, 965, 966, 967, 968, 969, 969, 972, 973, 973, 973, 973, 973, 973, 973, 975, 975, 975, 975, 975, 975, 975, 975, 975, 975, 974, 972, 966, 964, 961, 956, 949, 946, 944, 941, 935, 933, 930, 925, 918, 912, 908, 903, 894, 892, 889, 886, 883, 879, 874, 870, 860, 855, 852, 847, 839, 836, 832, 826, 819, 814, 811, 809, 807, 805, 804, 803, 801, 799, 798, 795, 791, 789, 783, 780, 770, 765, 759, 755, 747, 744, 740, 736, 730, 727, 723, 718, 710, 706, 702, 698, 690, 686, 683, 679, 674, 671, 665, 661, 649, 640, 629, 619, 595, 582, 571, 561, 542, 533, 528, 521, 506, 497, 489, 480, 472, 466, 455, 444, 421, 411, 399, 387, 369, 358, 352, 342, 320, 309, 299, 291, 271, 264, 255, 246, 227, 218, 211, 204, 198, 195, 194, 193, 191, 190, 188, 187, 186, 186, 186, 186, 185, 184, 184, 183, 181, 181, 178, 177, 177, 177, 177, 177]","[1010, 1010, 1010, 1010, 1010, 1010, 1010, 1010, 1010, 1010, 1010, 1010, 1010, 1010, 1007, 1006, 1004, 1002, 999, 998, 997, 996, 993, 991, 988, 985, 978, 973, 968, 962, 947, 937, 929, 916, 895, 884, 872, 862, 840, 832, 824, 814, 803, 798, 793, 790, 777, 771, 766, 760, 745, 738, 731, 719, 703, 697, 691, 684, 675, 666, 660, 653, 639, 632, 624, 618, 607, 604, 601, 597, 593, 589, 583, 578, 568, 564, 560, 556, 549, 545, 540, 534, 524, 519, 516, 512, 508, 505, 503, 502, 498, 497, 494, 490, 483, 477, 471, 464, 448, 442, 433, 428, 417, 413, 408, 403, 394, 391, 387, 381, 368, 364, 357, 351, 343, 339, 335, 334, 329, 326, 323, 320, 314, 310, 306, 300, 287, 281, 277, 271, 264, 259, 255, 252, 243, 237, 232, 227, 223, 219, 213, 206, 195, 190, 185, 180, 174, 169, 166, 162, 153, 149, 146, 144, 138, 135, 133, 129, 120, 118, 115, 114, 112, 110, 110, 110, 109, 108, 107, 106, 106, 106, 106, 106, 105, 104, 104, 103, 102, 102, 101, 101, 100, 100, 100, 100]"
"Trust","Teilnehmer A hat Ihnen 2 Punkte übermittelt.","Payback","0","undefined","1","0","0","60","1080","471","10","2","2602","0","legacy","[11, 21, 31, 41, 51, 61, 71, 81, 91, 101, 111, 121, 131, 141, 151, 161, 171, 181, 191, 201, 211, 221, 231, 241, 251, 261, 271, 281, 291, 301, 311, 321, 331, 341, 351, 361, 371, 381, 391, 401, 411, 421, 431, 441, 451, 461, 471, 481, 491, 501, 511, 521, 531, 541, 551, 561, 571, 581, 591, 601, 611, 621, 631, 641, 651, 661, 671, 681, 691, 701, 711, 721, 731, 741, 751, 761, 771, 781, 791, 801, 811, 821, 831, 841, 851, 861, 871, 881, 891, 901, 911, 921, 931, 941, 951, 961, 971, 981, 991, 1001, 1011, 1021, 1031, 1041, 1051, 1061, 1071, 1081, 1091, 1101, 1111, 1121, 1131, 1141, 1151, 1161, 1171, 1181, 1191, 1201, 1211, 1221, 1231, 1241, 1251, 1261, 1271, 1281, 1291, 1301, 1311, 1321, 1331, 1341, 1351, 1361, 1371, 1381, 1391, 1401, 1411, 1421, 1431, 1441, 1451, 1461, 1471, 1481, 1491, 1501, 1511, 1521, 1531, 1541, 1551, 1561, 1571, 1581, 1591, 1601, 1611, 1621, 1631, 1641, 1651, 1661, 1671, 1681, 1691, 1701, 1711, 1721, 1731, 1741, 1751, 1761, 1771, 1781, 1791, 1801, 1811, 1821, 1831, 1841, 1851, 1861, 1871, 1881, 1891, 1901, 1911, 1921, 1931, 1941, 1951, 1961, 1971, 1981, 1991, 2001, 2011, 2021, 2031, 2041, 2051, 2061, 2071, 2081, 2091, 2101, 2111, 2121, 2131, 2141, 2151, 2161, 2171, 2181, 2191, 2201, 2211, 2221, 2231, 2241, 2251, 2261, 2271, 2281, 2291, 2301, 2311, 2321, 2331, 2341, 2351, 2361, 2371, 2381, 2391, 2401, 2411, 2421, 2431, 2441, 2451, 2461, 2471, 2481, 2491, 2501, 2511, 2521, 2531, 2541, 2551, 2561, 2571, 2581, 2591, 2601]","1051","1920","[960, 960, 960, 960, 960, 960, 960, 960, 960, 960, 960, 960, 960, 960, 960, 960, 960, 960, 960, 960, 960, 960, 960, 960, 960, 960, 960, 960, 960, 960, 960, 960, 960, 960, 960, 960, 960, 960, 960, 960, 963, 964, 966, 967, 969, 971, 973, 973, 978, 979, 979, 979, 980, 982, 982, 982, 982, 982, 982, 982, 982, 982, 982, 982, 982, 982, 982, 982, 981, 981, 981, 981, 980, 980, 979, 978, 978, 978, 978, 978, 978, 977, 977, 977, 976, 976, 976, 976, 976, 976, 976, 976, 976, 976, 976, 976, 976, 976, 976, 976, 976, 976, 976, 976, 976, 976, 974, 974, 973, 973, 973, 972, 972, 972, 970, 970, 970, 969, 968, 966, 966, 965, 962, 961, 959, 959, 958, 957, 955, 954, 953, 952, 950, 950, 949, 948, 946, 945, 945, 944, 940, 940, 939, 935, 930, 925, 925, 924, 922, 921, 919, 916, 912, 912, 911, 911, 908, 907, 906, 906, 906, 906, 906, 907, 916, 923, 930, 939, 959, 972, 983, 994, 1011, 1019, 1026, 1036, 1047, 1054, 1060, 1065, 1077, 1082, 1087, 1094, 1110, 1118, 1128, 1139, 1160, 1168, 1177, 1184, 1195, 1203, 1209, 1217, 1229, 1233, 1239, 1246, 1261, 1268, 1278, 1289, 1312, 1323, 1335, 1345, 1361, 1369, 1376, 1382, 1397, 1402, 1412, 1420, 1437, 1446, 1457, 1469, 1488, 1499, 1512, 1523, 1544, 1554, 1563, 1573, 1590, 1598, 1605, 1615, 1631, 1642, 1650, 1657, 1672, 1677, 1683, 1689, 1699, 1705, 1710, 1715, 1724, 1727, 1730, 1731, 1735, 1738, 1741, 1745, 1754, 1756, 1758, 1761, 1761, 1761, 1761, 1761]","[1011, 1012, 1012, 1012, 1013, 1015, 1015, 1015, 1015, 1015, 1015, 1015, 1015, 1015, 1015, 1015, 1015, 1015, 1015, 1015, 1015, 1015, 1015, 1015, 1015, 1015, 1015, 1015, 1015, 1015, 1015, 1015, 1015, 1015, 1015, 1015, 1010, 1006, 1001, 996, 981, 974, 968, 963, 952, 942, 930, 921, 897, 886, 872, 861, 843, 836, 829, 824, 816, 812, 809, 805, 799, 793, 786, 781, 768, 764, 760, 758, 750, 746, 743, 739, 732, 728, 723, 717, 709, 704, 700, 697, 692, 689, 685, 680, 677, 674, 672, 670, 665, 662, 661, 658, 651, 648, 645, 643, 638, 636, 633, 631, 627, 625, 622, 619, 611, 607, 602, 599, 593, 591, 588, 585, 581, 579, 577, 573, 568, 565, 561, 558, 553, 550, 544, 541, 533, 531, 528, 525, 518, 514, 511, 507, 501, 500, 497, 495, 487, 485, 484, 480, 474, 470, 466, 457, 445, 436, 435, 432, 427, 423, 416, 408, 398, 396, 393, 390, 383, 379, 376, 374, 369, 367, 364, 359, 346, 337, 330, 322, 308, 299, 294, 288, 277, 274, 270, 264, 259, 255, 253, 250, 243, 240, 239, 236, 230, 228, 224, 222, 217, 213, 210, 207, 203, 199, 197, 194, 191, 189, 187, 186, 181, 178, 175, 172, 165, 162, 159, 156, 151, 149, 148, 146, 143, 141, 139, 136, 131, 129, 127, 125, 119, 117, 116, 113, 108, 106, 105, 103, 101, 100, 99, 96, 92, 90, 87, 85, 82, 81, 80, 79, 77, 76, 76, 75, 74, 74, 73, 73, 72, 72, 71, 71, 70, 69, 69, 69, 69, 69, 69, 69]"
"Trust","Teilnehmer A hat Ihnen 2 Punkte übermittelt.","Payback","1","undefined","2","0","0","60","1080","211","5","1","1083","0","legacy","[11, 21, 31, 41, 51, 61, 71, 81, 91, 101, 111, 121, 131, 141, 151, 161, 171, 181, 191, 201, 211, 221, 231, 241, 251, 261, 271, 281, 291, 301, 311, 321, 331, 341, 351, 361, 371, 381, 391, 401, 411, 421, 431, 441, 451, 461, 471, 481, 491, 501, 511, 521, 531, 541, 551, 561, 571, 581, 591, 601, 611, 621, 631, 641, 651, 661, 671, 681, 691, 701, 711, 721, 731, 741, 751, 761, 771, 781, 791, 801, 811, 821, 831, 841, 851, 861, 871, 881, 891, 901, 911, 921, 931, 941, 951, 961, 971, 981, 991, 1001, 1011, 1021, 1031, 1041, 1051, 1061, 1071, 1081]","1051","1920","[960, 960, 960, 960, 960, 960, 960, 960, 960, 960, 960, 960, 960, 960, 960, 960, 960, 959, 958, 956, 953, 948, 943, 934, 925, 905, 895, 883, 872, 847, 834, 817, 801, 772, 763, 752, 745, 734, 729, 724, 718, 709, 703, 698, 693, 680, 675, 668, 662, 649, 642, 636, 630, 613, 605, 594, 581, 548, 535, 525, 515, 500, 493, 486, 478, 463, 456, 446, 435, 412, 401, 388, 377, 359, 349, 338, 328, 303, 289, 276, 264, 250, 242, 235, 228, 215, 209, 204, 200, 192, 189, 186, 184, 180, 177, 177, 176, 176, 176, 176, 176, 176, 176, 176, 176, 176, 176, 176]","[1010, 1010, 1010, 1010, 1010, 1009, 1009, 1009, 1009, 1009, 1009, 1007, 1005, 999, 995, 991, 984, 968, 956, 945, 934, 909, 895, 874, 853, 809, 788, 768, 745, 701, 677, 652, 629, 589, 576, 563, 553, 537, 530, 523, 515, 502, 494, 486, 476, 451, 439, 426, 415, 392, 381, 372, 363, 341, 330, 314, 299, 265, 251, 242, 234, 222, 217, 211, 205, 195, 190, 185, 178, 165, 160, 155, 153, 146, 143, 140, 137, 129, 126, 121, 118, 115, 112, 111, 108, 105, 102, 100, 97, 93, 93, 92, 91, 91, 89, 89, 89, 89, 89, 89, 89, 89, 89, 89, 89, 89, 89, 89]"
"Promise","Wie oft werden Sie die Hälfte zurückgeben?","Promise","0","undefined","2","0","1","60","1080","281","5","2","1959","0","legacy","[11, 21, 31, 41, 51, 61, 71, 81, 91, 101, 111, 121, 131, 141, 151, 161, 171, 181, 191, 201, 211, 221, 231, 241, 251, 261, 271, 281, 291, 301, 311, 321, 331, 341, 351, 361, 371, 381, 391, 401, 411, 421, 431, 441, 451, 461, 471, 481, 491, 501, 511, 521, 531, 541, 551, 561, 571, 581, 591, 601, 611, 621, 631, 641, 651, 661, 671, 681, 691, 701, 711, 721, 731, 741, 751, 761, 771, 781, 791, 801, 811, 821, 831, 841, 851, 861, 871, 881, 891, 901, 911, 921, 931, 941, 951, 961, 971, 981, 991, 1001, 1011, 1021, 1031, 1041, 1051, 1061, 1071, 1081, 1091, 1101, 1111, 1121, 1131, 1141, 1151, 1161, 1171, 1181, 1191, 1201, 1211, 1221, 1231, 1241, 1251, 1261, 1271, 1281, 1291, 1301, 1311, 1321, 1331, 1341, 1351, 1361, 1371, 1381, 1391, 1401, 1411, 1421, 1431, 1441, 1451, 1461, 1471, 1481, 1491, 1501, 1511, 1521, 1531, 1541, 1551, 1561, 1571, 1581, 1591, 1601, 1611, 1621, 1631, 1641, 1651, 1661, 1671, 1681, 1691, 1701, 1711, 1721, 1731, 1741, 1751, 1761, 1771, 1781, 1791, 1801, 1811, 1821, 1831, 1841, 1851, 1861, 1871, 1881, 1891, 1901, 1911, 1921, 1931, 1941, 1951]","1051","1920","[960, 960, 960, 960, 960, 960, 960, 960, 960, 960, 960, 960, 961, 961, 962, 963, 963, 963, 963, 963, 963, 963, 963, 963, 963, 963, 963, 963, 963, 963, 963, 963, 963, 963, 963, 963, 963, 963, 963, 965, 966, 967, 967, 968, 970, 970, 971, 974, 976, 977, 978, 981, 981, 982, 982, 985, 986, 987, 987, 991, 993, 994, 997, 1005, 1008, 1011, 1016, 1022, 1024, 1029, 1031, 1039, 1043, 1048, 1051, 1060, 1064, 1069, 1076, 1091, 1102, 1110, 1119, 1139, 1147, 1155, 1161, 1170, 1174, 1179, 1182, 1189, 1196, 1202, 1207, 1222, 1229, 1238, 1244, 1260, 1266, 1275, 1282, 1302, 1312, 1325, 1336, 1353, 1365, 1375, 1385, 1403, 1415, 1425, 1436, 1455, 1464, 1472, 1479, 1489, 1493, 1497, 1500, 1507, 1512, 1517, 1525, 1539, 1545, 1550, 1556, 1563, 1564, 1566, 1567, 1574, 1580, 1585, 1593, 1607, 1617, 1624, 1632, 1647, 1653, 1659, 1662, 1669, 1671, 1672, 1676, 1678, 1679, 1679, 1682, 1684, 1686, 1689, 1690, 1694, 1695, 1696, 1696, 1696, 1696, 1696, 1696, 1696, 1696, 1696, 1696, 1697, 1698, 1700, 1701, 1704, 1704, 1707, 1707, 1710, 1711, 1712, 1712, 1714, 1714, 1714, 1714, 1714, 1714, 1714, 1714, 1714, 1714, 1714, 1714]","[1010, 1010, 1010, 1010, 1010, 1010, 1010, 1010, 1010, 1010, 1010, 1010, 1009, 1009, 1006, 1003, 998, 995, 992, 988, 985, 983, 981, 972, 967, 958, 949, 930, 919, 909, 900, 883, 877, 866, 856, 837, 829, 819, 810, 798, 794, 788, 785, 774, 768, 762, 753, 735, 725, 714, 704, 687, 684, 679, 673, 659, 652, 644, 635, 616, 605, 594, 584, 560, 550, 538, 522, 501, 494, 482, 474, 455, 449, 440, 435, 421, 413, 407, 398, 383, 375, 370, 365, 356, 350, 348, 345, 341, 338, 336, 334, 330, 327, 324, 322, 317, 313, 310, 306, 297, 293, 286, 282, 272, 268, 264, 259, 252, 246, 242, 237, 229, 225, 220, 216, 207, 204, 200, 198, 193, 190, 188, 187, 183, 179, 175, 170, 160, 156, 152, 149, 146, 145, 143, 142, 137, 133, 130, 123, 115, 109, 105, 101, 96, 94, 89, 89, 85, 85, 84, 82, 81, 81, 81, 81, 79, 79, 77, 77, 75, 75, 75, 75, 75, 75, 75, 75, 75, 75, 75, 75, 75, 74, 74, 73, 71, 71, 71, 71, 70, 70, 70, 70, 69, 69, 69, 69, 69, 69, 69, 69, 69, 69, 69, 69]"
"Trust","Teilnehmer A hat Ihnen 2 Punkte übermittelt.","Payback","0","undefined","3","0","1","60","1080","351","10","2","1942","0","legacy","[11, 21, 31, 41, 51, 61, 71, 81, 91, 101, 111, 121, 131, 141, 151, 161, 171, 181, 191, 201, 211, 221, 231, 241, 251, 261, 271, 281, 291, 301, 311, 321, 331, 341, 351, 361, 371, 381, 391, 401, 411, 421, 431, 441, 451, 461, 471, 481, 491, 501, 511, 521, 531, 541, 551, 561, 571, 581, 591, 601, 611, 621, 631, 641, 651, 661, 671, 681, 691, 701, 711, 721, 731, 741, 751, 761, 771, 781, 791, 801, 811, 821, 831, 841, 851, 861, 871, 881, 891, 901, 911, 921, 931, 941, 951, 961, 971, 981, 991, 1001, 1011, 1021, 1031, 1041, 1051, 1061, 1071, 1081, 1091, 1101, 1111, 1121, 1131, 1141, 1151, 1161, 1171, 1181, 1191, 1201, 1211, 1221, 1231, 1241, 1251, 1261, 1271, 1281, 1291, 1301, 1311, 1321, 1331, 1341, 1351, 1361, 1371, 1381, 1391, 1401, 1411, 1421, 1431, 1441, 1451, 1461, 1471, 1481, 1491, 1501, 1511, 1521, 1531, 1541, 1551, 1561, 1571, 1581, 1591, 1601, 1611, 1621, 1631, 1641, 1651, 1661, 1671, 1681, 1691, 1701, 1711, 1721, 1731, 1741, 1751, 1761, 1771, 1781, 1791, 1801, 1811, 1821, 1831, 1841, 1851, 1861, 1871, 1881, 1891, 1901, 1911, 1921, 1931, 1941]","1051","1920","[960, 960, 960, 960, 960, 960, 960, 960, 960, 960, 960, 960, 960, 960, 960, 960, 960, 960, 959, 959, 959, 959, 959, 959, 959, 959, 959, 959, 959, 959, 959, 959, 956, 954, 951, 949, 947, 946, 945, 945, 945, 945, 945, 945, 945, 945, 945, 945, 945, 945, 945, 945, 945, 945, 945, 945, 948, 949, 955, 956, 959, 963, 965, 970, 970, 971, 976, 978, 979, 980, 985, 987, 989, 990, 994, 996, 998, 998, 1002, 1004, 1005, 1006, 1009, 1012, 1014, 1017, 1023, 1025, 1029, 1031, 1036, 1037, 1037, 1039, 1041, 1044, 1046, 1050, 1053, 1055, 1058, 1059, 1062, 1063, 1066, 1066, 1069, 1070, 1072, 1075, 1082, 1087, 1091, 1093, 1097, 1100, 1103, 1105, 1109, 1112, 1115, 1119, 1130, 1137, 1147, 1154, 1170, 1174, 1178, 1182, 1188, 1191, 1195, 1200, 1215, 1226, 1235, 1248, 1266, 1275, 1282, 1292, 1307, 1313, 1319, 1327, 1345, 1355, 1367, 1381, 1427, 1450, 1476, 1503, 1544, 1556, 1566, 1576, 1590, 1597, 1603, 1611, 1626, 1634, 1641, 1651, 1664, 1670, 1676, 1683, 1696, 1702, 1711, 1717, 1731, 1737, 1743, 1747, 1760, 1766, 1769, 1772, 1774, 1774, 1774, 1774, 1774, 1774, 1774, 1774, 1774, 1774, 1774, 1774]","[1010, 1010, 1010, 1010, 1010, 1010, 1010, 1010, 1010, 1010, 1010, 1010, 1010, 1010, 1010, 1010, 1010, 1010, 1010, 1010, 1010, 1010, 1008, 1007, 1007, 1006, 1003, 1000, 998, 992, 981, 971, 960, 949, 923, 911, 901, 893, 880, 876, 870, 862, 845, 839, 833, 825, 810, 803, 796, 790, 781, 778, 774, 770, 760, 756, 750, 742, 722, 711, 701, 690, 680, 672, 670, 667, 657, 653, 649, 645, 634, 628, 625, 622, 614, 609, 607, 604, 599, 597, 595, 593, 588, 583, 578, 572, 560, 555, 551, 548, 542, 541, 538, 535, 530, 526, 523, 518, 511, 508, 503, 501, 495, 493, 490, 488, 485, 482, 480, 476, 469, 465, 460, 458, 452, 448, 445, 443, 438, 435, 430, 425, 411, 401, 389, 376, 355, 349, 345, 340, 335, 332, 331, 326, 314, 307, 301, 294, 284, 278, 274, 268, 259, 256, 252, 248, 238, 231, 225, 218, 195, 186, 176, 163, 145, 139, 135, 130, 124, 122, 119, 117, 112, 109, 104, 100, 95, 93, 90, 89, 85, 84, 82, 79, 75, 74, 72, 70, 68, 66, 64, 64, 63, 63, 63, 63, 63, 63, 63, 63, 63, 63, 63, 63]"
"Trust","Teilnehmer A hat Ihnen 2 Punkte übermittelt.","Payback","0","undefined","4","0","1","60","1080","201","10","2","1540","0","legacy","[11, 21, 31, 41, 51, 61, 71, 81, 91, 101, 111, 121, 131, 141, 151, 161, 171, 181, 191, 201, 211, 221, 231, 241, 251, 261, 271, 281, 291, 301, 311, 321, 331, 341, 351, 361, 371, 381, 391, 401, 411, 421, 431, 441, 451, 461, 471, 481, 491, 501, 511, 521, 531, 541, 551, 561, 571, 581, 591, 601, 611, 621, 631, 641, 651, 661, 671, 681, 691, 701, 711, 721, 731, 741, 751, 761, 771, 781, 791, 801, 811, 821, 831, 841, 851, 861, 871, 881, 891, 901, 911, 921, 931, 941, 951, 961, 971, 981, 991, 1001, 1011, 1021, 1031, 1041, 1051, 1061, 1071, 1081, 1091, 1101, 1111, 1121, 1131, 1141, 1151, 1161, 1171, 1181, 1191, 1201, 1211, 1221, 1231, 1241, 1251, 1261, 1271, 1281, 1291, 1301, 1311, 1321, 1331, 1341, 1351, 1361, 1371, 1381, 1391, 1401, 1411, 1421, 1431, 1441, 1451, 1461, 1471, 1481, 1491, 1501, 1511, 1521, 1531]","1051","1920","[960, 960, 960, 960, 960, 960, 960, 960, 960, 959, 959, 959, 959, 959, 960, 961, 961, 964, 967, 969, 970, 976, 978, 982, 987, 1001, 1009, 1013, 1016, 1025, 1028, 1032, 1035, 1042, 1044, 1047, 1051, 1060, 1066, 1070, 1073, 1082, 1087, 1093, 1098, 1107, 1111, 1115, 1119, 1129, 1133, 1140, 1144, 1155, 1160, 1165, 1169, 1178, 1183, 1188, 1194, 1206, 1210, 1217, 1222, 1234, 1239, 1244, 1248, 1258, 1262, 1265, 1270, 1279, 1282, 1287, 1291, 1302, 1308, 1314, 1320, 1334, 1340, 1348, 1355, 1372, 1376, 1383, 1389, 1404, 1410, 1416, 1425, 1440, 1446, 1456, 1459, 1470, 1475, 1481, 1490, 1504, 1512, 1522, 1528, 1543, 1548, 1552, 1556, 1567, 1571, 1578, 1588, 1603, 1611, 1621, 1630, 1648, 1654, 1659, 1665, 1673, 1676, 1680, 1686, 1694, 1699, 1705, 1711, 1720, 1724, 1730, 1732, 1740, 1744, 1748, 1751, 1759, 1761, 1763, 1764, 1764, 1764, 1764, 1764, 1764, 1764, 1764, 1764, 1764, 1764, 1764, 1764]","[1010, 1011, 1011, 1011, 1011, 1011, 1011, 1011, 1011, 1011, 1010, 1006, 1004, 994, 989, 979, 971, 953, 942, 929, 919, 895, 883, 872, 854, 821, 801, 787, 773, 749, 739, 731, 721, 704, 695, 686, 678, 655, 644, 636, 630, 614, 607, 600, 593, 578, 569, 562, 553, 538, 532, 522, 517, 502, 496, 487, 481, 470, 462, 453, 446, 431, 425, 414, 407, 393, 387, 382, 377, 365, 363, 359, 354, 348, 346, 343, 339, 332, 327, 323, 318, 309, 304, 299, 293, 282, 280, 274, 270, 262, 258, 253, 248, 239, 235, 230, 228, 222, 219, 217, 212, 203, 199, 193, 192, 183, 180, 177, 176, 168, 166, 162, 157, 151, 148, 145, 141, 135, 131, 129, 125, 120, 117, 115, 112, 107, 105, 101, 99, 95, 93, 91, 89, 85, 83, 80, 79, 76, 75, 75, 74, 74, 74, 74, 74, 74, 74, 74, 74, 74, 74, 74, 74]"
"Trust","Teilnehmer A hat Ihnen 2 Punkte übermittelt.","Payback","0","undefined","5","0","1","60","1080","251","10","2","1339","0","legacy","[11, 21, 31, 41, 51, 61, 71, 81, 91, 101, 111, 121, 131, 141, 151, 161, 171, 181, 191, 201, 211, 221, 231, 241, 251, 261, 271, 281, 291, 301, 311, 321, 331, 341, 351, 361, 371, 381, 391, 401, 411, 421, 431, 441, 451, 461, 471, 481, 491, 501, 511, 521, 531, 541, 551, 561, 571, 581, 591, 601, 611, 621, 631, 641, 651, 661, 671, 681, 691, 701, 711, 721, 731, 741, 751, 761, 771, 781, 791, 801, 811, 821, 831, 841, 851, 861, 871, 881, 891, 901, 911, 921, 931, 941, 951, 961, 971, 981, 991, 1001, 1011, 1021, 1031, 1041, 1051, 1061, 1071, 1081, 1091, 1101, 1111, 1121, 1131, 1141, 1151, 1161, 1171, 1181, 1191, 1201, 1211, 1221, 1231, 1241, 1251, 1261, 1271, 1281, 1291, 1301, 1311, 1321, 1331]","1051","1920","[960, 960, 960, 960, 960, 960, 960, 960, 960, 960, 960, 960, 960, 960, 960, 960, 960, 961, 961, 961, 961, 961, 961, 961, 961, 964, 967, 969, 970, 975, 977, 978, 981, 983, 984, 987, 988, 991, 992, 993, 994, 1003, 1006, 1009, 1014, 1019, 1021, 1025, 1027, 1033, 1036, 1040, 1044, 1054, 1058, 1063, 1069, 1077, 1082, 1087, 1093, 1101, 1105, 1110, 1117, 1127, 1134, 1141, 1146, 1159, 1164, 1170, 1178, 1196, 1203, 1215, 1224, 1252, 1262, 1272, 1282, 1301, 1308, 1314, 1324, 1341, 1351, 1361, 1371, 1391, 1401, 1411, 1417, 1433, 1442, 1452, 1462, 1484, 1496, 1512, 1525, 1559, 1574, 1586, 1599, 1622, 1632, 1640, 1648, 1666, 1674, 1681, 1692, 1707, 1713, 1721, 1729, 1742, 1748, 1751, 1754, 1760, 1762, 1766, 1770, 1779, 1783, 1786, 1786, 1787, 1787, 1787, 1787]","[1010, 1010, 1010, 1010, 1010, 1010, 1010, 1010, 1010, 1010, 1010, 1010, 1010, 1008, 1005, 1001, 998, 990, 986, 980, 975, 959, 950, 942, 931, 910, 896, 885, 873, 840, 824, 812, 801, 779, 768, 758, 748, 736, 731, 721, 710, 686, 675, 661, 650, 630, 620, 609, 601, 585, 579, 570, 560, 539, 528, 516, 505, 485, 476, 466, 459, 441, 434, 426, 416, 401, 394, 386, 378, 363, 358, 352, 345, 332, 325, 319, 312, 297, 294, 289, 285, 277, 272, 269, 263, 257, 252, 248, 245, 235, 230, 227, 224, 217, 214, 209, 204, 196, 191, 184, 179, 164, 158, 152, 146, 136, 132, 129, 125, 118, 115, 110, 106, 100, 98, 94, 91, 87, 84, 83, 80, 78, 77, 76, 75, 71, 71, 71, 71, 70, 70, 70, 70]"
"Promise","Wie oft werden Sie die Hälfte zurückgeben?","Promise","0","undefined","5","0","2","60","1080","291","10","2","1383","0","legacy","[11, 21, 31, 41, 51, 61, 71, 81, 91, 101, 111, 121, 131, 141, 151, 161, 171, 181, 191, 201, 211, 221, 231, 241, 251, 261, 271, 281, 291, 301, 311, 321, 331, 341, 351, 361, 371, 381, 391, 401, 411, 421, 431, 441, 451, 461, 471, 481, 491, 501, 511, 521, 531, 541, 551, 561, 571, 581, 591, 601, 611, 621, 631, 641, 651, 661, 671, 681, 691, 701, 711, 721, 731, 741, 751, 761, 771, 781, 791, 801, 811, 821, 831, 841, 851, 861, 871, 881, 891, 901, 911, 921, 931, 941, 951, 961, 971, 981, 991, 1001, 1011, 1021, 1031, 1041, 1051, 1061, 1071, 1081, 1091, 1101, 1111, 1121, 1131, 1141, 1151, 1161, 1171, 1181, 1191, 1201, 1211, 1221, 1231, 1241, 1251, 1261, 1271, 1281, 1291, 1301, 1311, 1321, 1331, 1341, 1351, 1361, 1371, 1381]","1051","1920","[960, 960, 960, 960, 960, 960, 960, 960, 960, 960, 960, 960, 960, 960, 960, 960, 960, 960, 960, 960, 960, 960, 961, 961, 962, 962, 962, 966, 968, 969, 972, 974, 977, 979, 980, 985, 987, 992, 997, 1007, 1011, 1015, 1018, 1024, 1027, 1030, 1030, 1035, 1038, 1040, 1041, 1046, 1050, 1051, 1054, 1060, 1061, 1063, 1067, 1076, 1079, 1083, 1089, 1102, 1107, 1111, 1118, 1132, 1136, 1143, 1148, 1163, 1171, 1178, 1184, 1198, 1205, 1210, 1217, 1228, 1236, 1243, 1249, 1270, 1280, 1292, 1304, 1330, 1343, 1355, 1367, 1393, 1404, 1417, 1428, 1449, 1457, 1469, 1479, 1501, 1510, 1521, 1530, 1548, 1555, 1565, 1572, 1583, 1585, 1589, 1591, 1600, 1605, 1609, 1615, 1631, 1639, 1649, 1658, 1679, 1690, 1699, 1714, 1717, 1721, 1725, 1728, 1729, 1729, 1729, 1730, 1730, 1731, 1731, 1732, 1732, 1732, 1732]","[1010, 1010, 1010, 1010, 1010, 1010, 1010, 1010, 1010, 1010, 1010, 1010, 1010, 1010, 1010, 1010, 1010, 1010, 1010, 1010, 1008, 1006, 1004, 993, 986, 979, 970, 945, 935, 923, 914, 891, 880, 869, 854, 824, 806, 782, 765, 726, 712, 699, 689, 667, 657, 647, 640, 625, 616, 605, 593, 571, 561, 553, 544, 528, 522, 514, 505, 486, 476, 468, 457, 436, 427, 418, 408, 389, 381, 373, 367, 350, 340, 332, 326, 309, 303, 295, 289, 276, 270, 266, 260, 248, 244, 238, 233, 224, 218, 213, 209, 201, 197, 193, 191, 185, 182, 179, 175, 171, 169, 167, 165, 162, 160, 158, 157, 153, 152, 150, 150, 148, 146, 145, 143, 139, 136, 134, 129, 122, 116, 113, 106, 104, 102, 99, 99, 98, 98, 98, 98, 97, 97, 97, 97, 97, 97, 97]"
"Trust","Teilnehmer A hat Ihnen 2 Punkte übermittelt.","Payback","0","undefined","6","0","2","60","1080","231","10","2","1291","0","legacy","[11, 21, 31, 41, 51, 61, 71, 81, 91, 101, 111, 121, 131, 141, 151, 161, 171, 181, 191, 201, 211, 221, 231, 241, 251, 261, 271, 281, 291, 301, 311, 321, 331, 341, 351, 361, 371, 381, 391, 401, 411, 421, 431, 441, 451, 461, 471, 481, 491, 501, 511, 521, 531, 541, 551, 561, 571, 581, 591, 601, 611, 621, 631, 641, 651, 661, 671, 681, 691, 701, 711, 721, 731, 741, 751, 761, 771, 781, 791, 801, 811, 821, 831, 841, 851, 861, 871, 881, 891, 901, 911, 921, 931, 941, 951, 961, 971, 981, 991, 1001, 1011, 1021, 1031, 1041, 1051, 1061, 1071, 1081, 1091, 1101, 1111, 1121, 1131, 1141, 1151, 1161, 1171, 1181, 1191, 1201, 1211, 1221, 1231, 1241, 1251, 1261, 1271, 1281]","1051","1920","[960, 960, 960, 960, 960, 960, 960, 960, 960, 959, 959, 959, 957, 956, 956, 956, 955, 955, 955, 955, 953, 953, 953, 953, 953, 953, 953, 953, 953, 953, 953, 953, 954, 955, 957, 958, 963, 964, 968, 970, 975, 982, 987, 993, 1005, 1011, 1017, 1022, 1032, 1035, 1039, 1044, 1054, 1061, 1069, 1079, 1104, 1116, 1129, 1138, 1156, 1164, 1171, 1180, 1192, 1201, 1208, 1216, 1232, 1241, 1249, 1258, 1271, 1274, 1281, 1287, 1301, 1308, 1316, 1322, 1335, 1336, 1344, 1350, 1363, 1372, 1380, 1387, 1409, 1417, 1425, 1437, 1457, 1468, 1482, 1496, 1521, 1530, 1540, 1547, 1562, 1570, 1576, 1584, 1597, 1603, 1611, 1616, 1626, 1631, 1637, 1645, 1663, 1674, 1685, 1695, 1707, 1711, 1714, 1715, 1715, 1715, 1715, 1715, 1715, 1715, 1715, 1715]","[1010, 1010, 1010, 1010, 1010, 1010, 1010, 1010, 1010, 1010, 1008, 1006, 1001, 997, 994, 990, 981, 975, 971, 967, 954, 947, 938, 927, 905, 892, 875, 860, 818, 799, 784, 772, 752, 744, 737, 730, 713, 706, 696, 686, 661, 645, 630, 615, 591, 581, 572, 562, 544, 536, 528, 517, 490, 476, 458, 439, 395, 374, 356, 343, 322, 312, 305, 295, 280, 270, 261, 251, 231, 225, 218, 210, 199, 195, 190, 183, 172, 166, 162, 160, 155, 154, 152, 149, 145, 141, 138, 136, 128, 127, 125, 122, 120, 117, 116, 114, 109, 108, 104, 103, 98, 94, 92, 89, 84, 83, 80, 79, 78, 77, 77, 77, 77, 75, 74, 74, 73, 73, 72, 72, 72, 72, 72, 72, 72, 72, 72, 72]"
"NoTrust","Teilnehmer A hat Ihnen keine 2 Punkte übermittelt.","Payback","0","undefined","7","0","2","60","1080","231","0","2","1291","0","legacy","[11, 21, 31, 41, 51, 61, 71, 81, 91, 101, 111, 121, 131, 141, 151, 161, 171, 181, 191, 201, 211, 221, 231, 241, 251, 261, 271, 281, 291, 301, 311, 321, 331, 341, 351, 361, 371, 381, 391, 401, 411, 421, 431, 441, 451, 461, 471, 481, 491, 501, 511, 521, 531, 541, 551, 561, 571, 581, 591, 601, 611, 621, 631, 641, 651, 661, 671, 681, 691, 701, 711, 721, 731, 741, 751, 761, 771, 781, 791, 801, 811, 821, 831, 841, 851, 861, 871, 881, 891, 901, 911, 921, 931, 941, 951, 961, 971, 981, 991, 1001, 1011, 1021, 1031, 1041, 1051, 1061, 1071, 1081, 1091, 1101, 1111, 1121, 1131, 1141, 1151, 1161, 1171, 1181, 1191, 1201, 1211, 1221, 1231, 1241, 1251, 1261, 1271, 1281]","1051","1920","[960, 960, 960, 960, 960, 960, 960, 960, 960, 959, 959, 959, 957, 956, 956, 956, 955, 955, 955, 955, 953, 953, 953, 953, 953, 953, 953, 953, 953, 953, 953, 953, 954, 955, 957, 958, 963, 964, 968, 970, 975, 982, 987, 993, 1005, 1011, 1017, 1022, 1032, 1035, 1039, 1044, 1054, 1061, 1069, 1079, 1104, 1116, 1129, 1138, 1156, 1164, 1171, 1180, 1192, 1201, 1208, 1216, 1232, 1241, 1249, 1258, 1271, 1274, 1281, 1287, 1301, 1308, 1316, 1322, 1335, 1336, 1344, 1350, 1363, 1372, 1380, 1387, 1409, 1417, 1425, 1437, 1457, 1468, 1482, 1496, 1521, 1530, 1540, 1547, 1562, 1570, 1576, 1584, 1597, 1603, 1611, 1616, 1626, 1631, 1637, 1645, 1663, 1674, 1685, 1695, 1707, 1711, 1714, 1715, 1715, 1715, 1715, 1715, 1715, 1715, 1715, 1715]","[1010, 1010, 1010, 1010, 1010, 1010, 1010, 1010, 1010, 1010, 1008, 1006, 1001, 997, 994, 990, 981, 975, 971, 967, 954, 947, 938, 927, 905, 892, 875, 860, 818, 799, 784, 772, 752, 744, 737, 730, 713, 706, 696, 686, 661, 645, 630, 615, 591, 581, 572, 562, 544, 536, 528, 517, 490, 476, 458, 439, 395, 374, 356, 343, 322, 312, 305, 295, 280, 270, 261, 251, 231, 225, 218, 210, 199, 195, 190, 183, 172, 166, 162, 160, 155, 154, 152, 149, 145, 141, 138, 136, 128, 127, 125, 122, 120, 117, 116, 114, 109, 108, 104, 103, 98, 94, 92, 89, 84, 83, 80, 79, 78, 77, 77, 77, 77, 75, 74, 74, 73, 73, 72, 72, 72, 72, 72, 72, 72, 72, 72, 72]"
"Trust","Teilnehmer A hat Ihnen 2 Punkte übermittelt.","Payback","0","undefined","8","0","2","60","1080","341","10","2","3539","0","legacy","[11, 21, 31, 41, 51, 61, 71, 81, 91, 101, 111, 121, 131, 141, 151, 161, 171, 181, 191, 201, 211, 221, 231, 241, 251, 261, 271, 281, 291, 301, 311, 321, 331, 341, 351, 361, 371, 381, 391, 401, 411, 421, 431, 441, 451, 461, 471, 481, 491, 501, 511, 521, 531, 541, 551, 561, 571, 581, 591, 601, 611, 621, 631, 641, 651, 661, 671, 681, 691, 701, 711, 721, 731, 741, 751, 761, 771, 781, 791, 801, 811, 821, 831, 841, 851, 861, 871, 881, 891, 901, 911, 921, 931, 941, 951, 961, 971, 981, 991, 1001, 1011, 1021, 1031, 1041, 1051, 1061, 1071, 1081, 1091, 1101, 1111, 1121, 1131, 1141, 1151, 1161, 1171, 1181, 1191, 1201, 1211, 1221, 1231, 1241, 1251, 1261, 1271, 1281, 1291, 1301, 1311, 1321, 1331, 1341, 1351, 1361, 1371, 1381, 1391, 1401, 1411, 1421, 1431, 1441, 1451, 1461, 1471, 1481, 1491, 1501, 1511, 1521, 1531, 1541, 1551, 1561, 1571, 1581, 1591, 1601, 1611, 1621, 1631, 1641, 1651, 1661, 1671, 1681, 1691, 1701, 1711, 1721, 1731, 1741, 1751, 1761, 1771, 1781, 1791, 1801, 1811, 1821, 1831, 1841, 1851, 1861, 1871, 1881, 1891, 1901, 1911, 1921, 1931, 1941, 1951, 1961, 1971, 1981, 1991, 2001, 2011, 2021, 2031, 2041, 2051, 2061, 2071, 2081, 2091, 2101, 2111, 2121, 2131, 2141, 2151, 2161, 2171, 2181, 2191, 2201, 2211, 2221, 2231, 2241, 2251, 2261, 2271, 2281, 2291, 2301, 2311, 2321, 2331, 2341, 2351, 2361, 2371, 2381, 2391, 2401, 2411, 2421, 2431, 2441, 2451, 2461, 2471, 2481, 2491, 2501, 2511, 2521, 2531, 2541, 2551, 2561, 2571, 2581, 2591, 2601, 2611, 2621, 2631, 2641, 2651, 2661, 2671, 2681, 2691, 2701, 2711, 2721, 2731, 2741, 2751, 2761, 2771, 2781, 2791, 2801, 2811, 2821, 2831, 2841, 2851, 2861, 2871, 2881, 2891, 2901, 2911, 2921, 2931, 2941, 2951, 2961, 2971, 2981, 2991, 3001, 3011, 3021, 3031, 3041, 3051, 3061, 3071, 3081, 3091, 3101, 3111, 3121, 3131, 3141, 3151, 3161, 3171, 3181, 3191, 3201, 3211, 3221, 3231, 3241, 3251, 3261, 3271, 3281, 3291, 3301, 3311, 3321, 3331, 3341, 3351, 3361, 3371, 3381, 3391, 3401, 3411, 3421, 3431, 3441, 3451, 3461, 3471, 3481, 3491, 3501, 3511, 3521, 3531]","1051","1920","[960, 960, 960, 960, 960, 960, 960, 960, 960, 960, 960, 960, 960, 959, 959, 959, 959, 959, 959, 959, 959, 959, 959, 959, 959, 959, 959, 959, 959, 959, 959, 959, 959, 959, 959, 959, 959, 962, 963, 966, 968, 971, 971, 972, 974, 975, 975, 975, 975, 976, 978, 978, 979, 980, 980, 980, 982, 984, 985, 986, 987, 992, 996, 1002, 1009, 1022, 1031, 1036, 1041, 1050, 1057, 1062, 1070, 1082, 1088, 1095, 1103, 1114, 1119, 1126, 1133, 1144, 1149, 1156, 1160, 1170, 1173, 1178, 1183, 1193, 1198, 1204, 1209, 1216, 1220, 1225, 1230, 1242, 1248, 1253, 1257, 1266, 1272, 1277, 1286, 1300, 1306, 1313, 1316, 1330, 1336, 1343, 1348, 1366, 1377, 1396, 1414, 1440, 1455, 1467, 1482, 1512, 1523, 1535, 1544, 1557, 1563, 1569, 1573, 1583, 1587, 1592, 1600, 1612, 1616, 1622, 1627, 1635, 1637, 1639, 1639, 1643, 1647, 1650, 1655, 1662, 1664, 1669, 1671, 1678, 1683, 1685, 1690, 1695, 1698, 1702, 1704, 1712, 1719, 1721, 1724, 1729, 1730, 1733, 1733, 1737, 1737, 1737, 1738, 1740, 1741, 1741, 1743, 1747, 1749, 1750, 1752, 1756, 1757, 1757, 1758, 1758, 1758, 1758, 1758, 1758, 1758, 1758, 1758, 1758, 1758, 1758, 1758, 1758, 1758, 1758, 1758, 1758, 1758, 1758, 1758, 1758, 1758, 1758, 1758, 1758, 1758, 1758, 1758, 1758, 1758, 1758, 1758, 1758, 1758, 1758, 1758, 1758, 1758, 1758, 1758, 1758, 1758, 1758, 1758, 1758, 1758, 1758, 1758, 1758, 1758, 1758, 1758, 1758, 1758, 1758, 1756, 1747, 1740, 1731, 1720, 1689, 1663, 1635, 1596, 1493, 1428, 1355, 1281, 1117, 1042, 962, 890, 757, 693, 643, 599, 540, 524, 504, 484, 437, 414, 395, 378, 348, 335, 325, 310, 287, 276, 266, 261, 252, 251, 249, 249, 248, 247, 246, 243, 233, 228, 222, 218, 214, 214, 214, 214, 222, 233, 251, 277, 361, 408, 466, 524, 660, 732, 815, 895, 1050, 1124, 1199, 1268, 1396, 1454, 1515, 1573, 1695, 1756, 1817, 1869, 1919, 1919, 1919, 1919, 1919, 1919, 1919, 1919, 1919, 1919, 1919, 1919, 1919, 1919, 1919, 1919, 1919, 1919, 1919, 1919, 1912, 1902, 1891, 1879, 1856, 1847, 1837, 1830, 1823, 1820, 1820, 1819, 1816, 1815, 1813, 1810, 1803, 1803, 1802, 1802]","[1010, 1010, 1010, 1010, 1010, 1010, 1010, 1010, 1010, 1010, 1010, 1010, 1009, 1006, 1005, 1003, 1002, 1000, 999, 998, 996, 993, 990, 987, 984, 977, 973, 969, 963, 953, 950, 946, 942, 934, 928, 921, 914, 898, 888, 882, 872, 864, 860, 855, 852, 848, 847, 845, 841, 834, 831, 827, 824, 815, 811, 809, 806, 802, 798, 796, 792, 781, 774, 761, 748, 722, 708, 697, 687, 672, 662, 655, 646, 630, 622, 612, 602, 584, 577, 568, 559, 540, 533, 523, 515, 495, 486, 478, 469, 450, 440, 429, 421, 408, 403, 397, 390, 374, 365, 360, 354, 344, 339, 335, 330, 321, 318, 314, 312, 304, 301, 296, 294, 284, 277, 269, 260, 250, 242, 237, 231, 218, 214, 208, 202, 195, 191, 187, 185, 178, 175, 172, 168, 162, 161, 158, 156, 152, 151, 150, 149, 146, 143, 141, 139, 133, 131, 128, 127, 123, 121, 119, 115, 113, 112, 109, 107, 101, 97, 96, 94, 91, 90, 89, 89, 87, 87, 87, 85, 85, 83, 83, 82, 81, 79, 79, 78, 76, 76, 76, 75, 75, 75, 75, 75, 75, 75, 75, 75, 75, 75, 75, 75, 75, 75, 75, 75, 75, 75, 75, 75, 75, 75, 75, 75, 75, 75, 75, 75, 75, 75, 75, 75, 75, 75, 75, 75, 75, 75, 75, 75, 75, 75, 75, 75, 75, 75, 75, 75, 75, 75, 75, 75, 75, 75, 75, 77, 82, 86, 88, 91, 96, 98, 98, 98, 95, 86, 76, 65, 58, 58, 54, 54, 54, 54, 54, 54, 54, 54, 54, 54, 54, 54, 54, 54, 54, 54, 54, 54, 54, 54, 54, 54, 52, 52, 52, 52, 52, 52, 52, 51, 49, 49, 49, 49, 49, 49, 49, 50, 59, 60, 64, 67, 67, 67, 67, 67, 67, 67, 67, 67, 67, 67, 67, 66, 66, 66, 66, 66, 66, 66, 66, 66, 62, 57, 52, 51, 46, 45, 44, 44, 44, 44, 44, 44, 44, 44, 44, 44, 44, 44, 44, 44, 45, 48, 50, 54, 59, 60, 61, 61, 62, 64, 64, 64, 64, 65, 65, 67, 72, 72, 73, 73]"
"Promise","Wie oft werden Sie die Hälfte zurückgeben?","Promise","0","undefined","8","0","3","60","1080","611","10","2","1575","0","legacy","[11, 21, 31, 41, 51, 61, 71, 81, 91, 101, 111, 121, 131, 141, 151, 161, 171, 181, 191, 201, 211, 221, 231, 241, 251, 261, 271, 281, 291, 301, 311, 321, 331, 341, 351, 361, 371, 381, 391, 401, 411, 421, 431, 441, 451, 461, 471, 481, 491, 501, 511, 521, 531, 541, 551, 561, 571, 581, 591, 601, 611, 621, 631, 641, 651, 661, 671, 681, 691, 701, 711, 721, 731, 741, 751, 761, 771, 781, 791, 801, 811, 821, 831, 841, 851, 861, 871, 881, 891, 901, 911, 921, 931, 941, 951, 961, 971, 981, 991, 1001, 1011, 1021, 1031, 1041, 1051, 1061, 1071, 1081, 1091, 1101, 1111, 1121, 1131, 1141, 1151, 1161, 1171, 1181, 1191, 1201, 1211, 1221, 1231, 1241, 1251, 1261, 1271, 1281, 1291, 1301, 1311, 1321, 1331, 1341, 1351, 1361, 1371, 1381, 1391, 1401, 1411, 1421, 1431, 1441, 1451, 1461, 1471, 1481, 1491, 1501, 1511, 1521, 1531, 1541, 1551, 1561, 1571]","1051","1920","[960, 960, 960, 960, 960, 960, 960, 960, 960, 960, 960, 960, 960, 960, 960, 960, 960, 960, 960, 960, 960, 960, 960, 960, 960, 960, 960, 960, 960, 960, 960, 960, 960, 960, 960, 960, 960, 960, 960, 960, 960, 960, 960, 960, 960, 960, 961, 961, 961, 961, 962, 962, 962, 965, 965, 967, 968, 969, 970, 971, 971, 971, 972, 974, 977, 979, 983, 990, 991, 995, 996, 1000, 1001, 1002, 1004, 1005, 1007, 1010, 1014, 1021, 1027, 1034, 1038, 1048, 1053, 1058, 1062, 1072, 1080, 1089, 1096, 1121, 1129, 1136, 1142, 1156, 1162, 1166, 1170, 1178, 1183, 1187, 1189, 1199, 1205, 1211, 1222, 1237, 1245, 1255, 1264, 1280, 1288, 1297, 1306, 1326, 1339, 1353, 1366, 1390, 1402, 1417, 1428, 1448, 1458, 1469, 1480, 1503, 1515, 1528, 1539, 1560, 1568, 1574, 1580, 1596, 1603, 1609, 1614, 1623, 1629, 1639, 1646, 1666, 1676, 1683, 1693, 1706, 1712, 1716, 1719, 1721, 1721, 1721, 1721, 1721, 1721]","[1010, 1010, 1010, 1010, 1010, 1010, 1010, 1010, 1010, 1010, 1010, 1010, 1010, 1010, 1010, 1010, 1010, 1010, 1010, 1010, 1010, 1010, 1010, 1010, 1010, 1010, 1010, 1010, 1010, 1010, 1010, 1010, 1010, 1010, 1010, 1009, 1008, 1007, 1005, 1003, 1000, 999, 998, 997, 997, 996, 994, 993, 991, 990, 987, 982, 978, 972, 965, 955, 950, 947, 945, 941, 939, 938, 934, 927, 919, 908, 896, 871, 861, 852, 847, 835, 833, 830, 828, 824, 819, 813, 803, 778, 758, 738, 722, 694, 683, 674, 664, 640, 625, 605, 584, 534, 513, 496, 480, 452, 439, 429, 419, 401, 392, 382, 373, 353, 339, 327, 310, 285, 273, 261, 251, 237, 229, 222, 217, 205, 198, 189, 183, 172, 166, 160, 154, 146, 142, 137, 135, 128, 125, 120, 118, 116, 113, 112, 110, 105, 104, 103, 102, 99, 97, 94, 93, 87, 86, 83, 81, 77, 76, 74, 73, 72, 72, 72, 72, 72, 72]"
"Trust","Teilnehmer A hat Ihnen 2 Punkte übermittelt.","Payback","0","undefined","9","0","3","60","1080","321","10","2","1676","0","legacy","[11, 21, 31, 41, 51, 61, 71, 81, 91, 101, 111, 121, 131, 141, 151, 161, 171, 181, 191, 201, 211, 221, 231, 241, 251, 261, 271, 281, 291, 301, 311, 321, 331, 341, 351, 361, 371, 381, 391, 401, 411, 421, 431, 441, 451, 461, 471, 481, 491, 501, 511, 521, 531, 541, 551, 561, 571, 581, 591, 601, 611, 621, 631, 641, 651, 661, 671, 681, 691, 701, 711, 721, 731, 741, 751, 761, 771, 781, 791, 801, 811, 821, 831, 841, 851, 861, 871, 881, 891, 901, 911, 921, 931, 941, 951, 961, 971, 981, 991, 1001, 1011, 1021, 1031, 1041, 1051, 1061, 1071, 1081, 1091, 1101, 1111, 1121, 1131, 1141, 1151, 1161, 1171, 1181, 1191, 1201, 1211, 1221, 1231, 1241, 1251, 1261, 1271, 1281, 1291, 1301, 1311, 1321, 1331, 1341, 1351, 1361, 1371, 1381, 1391, 1401, 1411, 1421, 1431, 1441, 1451, 1461, 1471, 1481, 1491, 1501, 1511, 1521, 1531, 1541, 1551, 1561, 1571, 1581, 1591, 1601, 1611, 1621, 1631, 1641, 1651, 1661, 1671]","1051","1920","[960, 960, 960, 960, 960, 960, 960, 960, 960, 960, 960, 960, 961, 961, 961, 961, 961, 961, 961, 961, 961, 961, 961, 961, 961, 961, 961, 961, 961, 961, 961, 961, 961, 961, 961, 962, 963, 964, 966, 967, 968, 972, 973, 976, 978, 983, 984, 986, 989, 994, 997, 997, 1002, 1005, 1007, 1010, 1012, 1019, 1022, 1025, 1028, 1035, 1039, 1043, 1046, 1054, 1057, 1060, 1063, 1073, 1079, 1082, 1088, 1099, 1104, 1109, 1115, 1124, 1128, 1133, 1139, 1152, 1160, 1168, 1174, 1186, 1190, 1194, 1199, 1207, 1209, 1214, 1219, 1229, 1236, 1240, 1243, 1251, 1255, 1258, 1263, 1272, 1279, 1285, 1292, 1311, 1320, 1328, 1340, 1361, 1368, 1376, 1385, 1406, 1417, 1429, 1440, 1471, 1486, 1496, 1507, 1527, 1536, 1546, 1556, 1568, 1574, 1577, 1580, 1585, 1589, 1591, 1595, 1605, 1610, 1617, 1623, 1634, 1640, 1645, 1650, 1658, 1664, 1668, 1673, 1677, 1679, 1681, 1682, 1684, 1686, 1687, 1688, 1690, 1692, 1694, 1696, 1699, 1700, 1700, 1702, 1702, 1702, 1702, 1702, 1702, 1702]","[1010, 1010, 1010, 1010, 1010, 1010, 1010, 1010, 1010, 1010, 1010, 1010, 1010, 1008, 1006, 1005, 1005, 1002, 1000, 998, 995, 990, 987, 985, 983, 977, 974, 968, 964, 949, 941, 931, 922, 905, 896, 886, 880, 868, 863, 856, 849, 836, 830, 823, 816, 805, 797, 793, 787, 777, 770, 766, 760, 749, 745, 737, 733, 717, 711, 702, 697, 681, 675, 669, 664, 648, 641, 632, 625, 602, 592, 585, 577, 559, 551, 544, 536, 524, 516, 511, 504, 487, 478, 470, 465, 454, 449, 445, 440, 431, 429, 424, 420, 410, 404, 399, 395, 385, 381, 380, 376, 369, 365, 360, 354, 341, 334, 329, 321, 310, 304, 300, 296, 288, 284, 279, 277, 266, 259, 255, 249, 239, 234, 228, 222, 215, 211, 210, 207, 202, 200, 196, 192, 185, 181, 177, 173, 167, 163, 159, 156, 150, 146, 144, 141, 138, 137, 135, 134, 132, 132, 130, 130, 128, 128, 125, 125, 122, 122, 122, 121, 121, 121, 121, 121, 121, 121]"
"Trust","Teilnehmer A hat Ihnen 2 Punkte übermittelt.","Payback","0","undefined","10","0","3","60","1080","251","10","2","1099","0","legacy","[11, 21, 31, 41, 51, 61, 71, 81, 91, 101, 111, 121, 131, 141, 151, 161, 171, 181, 191, 201, 211, 221, 231, 241, 251, 261, 271, 281, 291, 301, 311, 321, 331, 341, 351, 361, 371, 381, 391, 401, 411, 421, 431, 441, 451, 461, 471, 481, 491, 501, 511, 521, 531, 541, 551, 561, 571, 581, 591, 601, 611, 621, 631, 641, 651, 661, 671, 681, 691, 701, 711, 721, 731, 741, 751, 761, 771, 781, 791, 801, 811, 821, 831, 841, 851, 861, 871, 881, 891, 901, 911, 921, 931, 941, 951, 961, 971, 981, 991, 1001, 1011, 1021, 1031, 1041, 1051, 1061, 1071, 1081, 1091]","1051","1920","[960, 960, 960, 960, 960, 960, 960, 960, 960, 960, 960, 960, 960, 960, 960, 961, 961, 961, 961, 961, 961, 961, 961, 961, 961, 965, 966, 970, 972, 985, 993, 999, 1007, 1017, 1023, 1028, 1032, 1042, 1044, 1048, 1050, 1055, 1058, 1061, 1065, 1072, 1076, 1080, 1085, 1093, 1098, 1104, 1111, 1121, 1126, 1132, 1139, 1154, 1162, 1171, 1180, 1199, 1208, 1216, 1223, 1237, 1245, 1251, 1259, 1274, 1283, 1291, 1302, 1325, 1338, 1351, 1366, 1399, 1416, 1433, 1455, 1500, 1519, 1538, 1560, 1601, 1615, 1630, 1643, 1664, 1670, 1677, 1685, 1699, 1707, 1714, 1724, 1741, 1749, 1756, 1765, 1771, 1774, 1774, 1774, 1774, 1774, 1774, 1774]","[1010, 1010, 1010, 1010, 1010, 1010, 1010, 1010, 1010, 1010, 1010, 1010, 1010, 1010, 1010, 1010, 1009, 1004, 1000, 992, 985, 966, 957, 947, 936, 910, 898, 882, 868, 827, 802, 780, 755, 708, 689, 669, 650, 620, 609, 599, 591, 572, 564, 554, 545, 527, 517, 507, 498, 478, 467, 454, 443, 427, 415, 405, 394, 369, 356, 342, 328, 300, 286, 275, 265, 250, 242, 237, 229, 214, 207, 202, 194, 180, 173, 167, 161, 146, 141, 136, 130, 116, 112, 108, 102, 94, 91, 88, 87, 82, 82, 81, 80, 77, 77, 76, 75, 72, 71, 70, 68, 67, 67, 67, 67, 67, 67, 67, 67]"
"Trust","Teilnehmer A hat Ihnen 2 Punkte übermittelt.","Payback","0","undefined","11","0","3","60","1080","251","10","2","1099","0","legacy","[11, 21, 31, 41, 51, 61, 71, 81, 91, 101, 111, 121, 131, 141, 151, 161, 171, 181, 191, 201, 211, 221, 231, 241, 251, 261, 271, 281, 291, 301, 311, 321, 331, 341, 351, 361, 371, 381, 391, 401, 411, 421, 431, 441, 451, 461, 471, 481, 491, 501, 511, 521, 531, 541, 551, 561, 571, 581, 591, 601, 611, 621, 631, 641, 651, 661, 671, 681, 691, 701, 711, 721, 731, 741, 751, 761, 771, 781, 791, 801, 811, 821, 831, 841, 851, 861, 871, 881, 891, 901, 911, 921, 931, 941, 951, 961, 971, 981, 991, 1001, 1011, 1021, 1031, 1041, 1051, 1061, 1071, 1081, 1091]","1051","1920","[960, 960, 960, 960, 960, 960, 960, 960, 960, 960, 960, 960, 960, 960, 960, 960, 960, 960, 960, 960, 960, 960, 960, 960, 960, 964, 967, 971, 979, 985, 986, 989, 990, 991, 993, 994, 996, 1004, 1008, 1014, 1019, 1029, 1033, 1036, 1041, 1050, 1055, 1060, 1067, 1079, 1084, 1090, 1096, 1113, 1121, 1129, 1137, 1158, 1172, 1183, 1195, 1213, 1221, 1228, 1236, 1248, 1254, 1261, 1267, 1281, 1290, 1301, 1311, 1329, 1339, 1349, 1358, 1379, 1390, 1400, 1415, 1442, 1462, 1482, 1507, 1556, 1584, 1612, 1637, 1687, 1709, 1730, 1749, 1775, 1787, 1798, 1807, 1817, 1819, 1820, 1820, 1820, 1820, 1820, 1820, 1820, 1820, 1820, 1820]","[1010, 1010, 1010, 1010, 1010, 1010, 1010, 1010, 1010, 1010, 1010, 1010, 1010, 1010, 1010, 1007, 1005, 998, 994, 988, 980, 969, 959, 950, 939, 911, 896, 879, 857, 815, 801, 790, 779, 760, 751, 744, 737, 713, 699, 685, 672, 649, 641, 631, 623, 607, 597, 587, 574, 551, 540, 527, 517, 497, 487, 475, 465, 435, 417, 403, 388, 365, 351, 342, 331, 310, 299, 289, 277, 257, 248, 239, 230, 214, 207, 200, 193, 179, 173, 167, 161, 150, 145, 137, 131, 119, 111, 102, 94, 82, 76, 73, 71, 67, 64, 63, 61, 58, 58, 58, 57, 57, 57, 57, 57, 57, 57, 57, 57]"
"Promise","Wie oft werden Sie die Hälfte zurückgeben?","Promise","0","undefined","11","0","4","60","1080","241","10","2","935","0","legacy","[11, 21, 31, 41, 51, 61, 71, 81, 91, 101, 111, 121, 131, 141, 151, 161, 171, 181, 191, 201, 211, 221, 231, 241, 251, 261, 271, 281, 291, 301, 311, 321, 331, 341, 351, 361, 371, 381, 391, 401, 411, 421, 431, 441, 451, 461, 471, 481, 491, 501, 511, 521, 531, 541, 551, 561, 571, 581, 591, 601, 611, 621, 631, 641, 651, 661, 671, 681, 691, 701, 711, 721, 731, 741, 751, 761, 771, 781, 791, 801, 811, 821, 831, 841, 851, 861, 871, 881, 891, 901, 911, 921, 931]","1051","1920","[960, 960, 960, 960, 960, 960, 960, 960, 960, 960, 960, 960, 960, 960, 960, 960, 960, 960, 960, 960, 960, 960, 960, 960, 960, 960, 960, 960, 965, 970, 974, 988, 993, 996, 1001, 1012, 1015, 1019, 1023, 1037, 1043, 1046, 1049, 1058, 1066, 1074, 1080, 1093, 1099, 1107, 1119, 1144, 1158, 1171, 1189, 1228, 1246, 1267, 1283, 1317, 1332, 1345, 1357, 1383, 1393, 1407, 1424, 1467, 1490, 1514, 1538, 1575, 1589, 1610, 1623, 1658, 1675, 1697, 1720, 1747, 1756, 1762, 1765, 1768, 1770, 1772, 1775, 1781, 1784, 1785, 1785, 1785, 1785]","[1010, 1010, 1010, 1010, 1010, 1010, 1010, 1010, 1010, 1010, 1010, 1010, 1010, 1010, 1010, 1010, 1010, 1007, 1003, 988, 978, 968, 956, 925, 910, 895, 878, 845, 823, 806, 789, 742, 725, 709, 690, 656, 643, 629, 615, 580, 568, 556, 545, 512, 487, 464, 451, 427, 415, 404, 388, 358, 343, 330, 315, 279, 262, 241, 227, 194, 180, 163, 148, 118, 107, 95, 82, 59, 49, 36, 27, 15, 10, 7, 4, 0, 0, 0, 0, 0, 0, 0, 0, 0, 3, 5, 8, 16, 19, 20, 20, 20, 20]"
"Trust","Teilnehmer A hat Ihnen 2 Punkte übermittelt.","Payback","0","undefined","12","0","4","60","1080","261","10","2","1036","0","legacy","[11, 21, 31, 41, 51, 61, 71, 81, 91, 101, 111, 121, 131, 141, 151, 162, 171, 181, 191, 201, 211, 221, 231, 241, 251, 261, 271, 281, 291, 301, 311, 321, 331, 341, 351, 361, 371, 381, 391, 401, 411, 421, 431, 441, 451, 461, 471, 481, 491, 501, 511, 521, 531, 541, 551, 561, 571, 581, 591, 601, 611, 621, 631, 641, 651, 661, 671, 681, 691, 701, 711, 721, 731, 741, 751, 761, 771, 781, 791, 801, 811, 821, 831, 841, 851, 861, 871, 881, 891, 901, 911, 921, 931, 941, 951, 961, 971, 981, 991, 1001, 1011, 1021, 1031]","1051","1920","[960, 960, 960, 960, 960, 960, 960, 960, 960, 960, 960, 960, 960, 960, 960, 959, 958, 956, 956, 955, 953, 950, 947, 946, 945, 945, 945, 945, 945, 950, 956, 962, 968, 984, 987, 992, 998, 1007, 1010, 1015, 1019, 1037, 1044, 1052, 1059, 1079, 1088, 1098, 1107, 1129, 1138, 1151, 1160, 1177, 1185, 1196, 1203, 1225, 1241, 1254, 1267, 1292, 1302, 1314, 1324, 1340, 1346, 1353, 1359, 1373, 1383, 1394, 1406, 1437, 1454, 1474, 1494, 1531, 1549, 1573, 1594, 1627, 1641, 1655, 1669, 1697, 1711, 1726, 1738, 1760, 1767, 1770, 1773, 1774, 1774, 1774, 1774, 1774, 1774, 1774, 1774, 1774, 1774]","[1010, 1010, 1010, 1010, 1010, 1010, 1010, 1010, 1010, 1010, 1010, 1010, 1010, 1010, 1010, 1011, 1011, 1007, 1006, 1003, 998, 984, 975, 966, 953, 922, 903, 884, 863, 833, 815, 795, 776, 720, 699, 679, 657, 617, 603, 590, 578, 542, 529, 516, 502, 455, 435, 418, 402, 364, 350, 333, 323, 302, 292, 280, 272, 246, 232, 218, 205, 184, 176, 167, 160, 148, 144, 140, 137, 132, 130, 130, 130, 130, 130, 130, 130, 128, 126, 121, 118, 113, 112, 110, 109, 109, 109, 109, 108, 107, 105, 105, 104, 104, 104, 104, 104, 104, 104, 104, 104, 104, 104]"
"Trust","Teilnehmer A hat Ihnen 2 Punkte übermittelt.","Payback","0","undefined","13","0","4","60","1080","211","10","2","866","0","legacy","[11, 21, 31, 41, 51, 61, 71, 81, 91, 101, 111, 121, 131, 141, 151, 161, 171, 181, 191, 201, 211, 221, 231, 241, 251, 261, 271, 281, 291, 301, 311, 321, 331, 341, 351, 361, 371, 381, 391, 401, 411, 421, 431, 441, 451, 461, 471, 481, 491, 501, 511, 521, 531, 541, 551, 561, 571, 581, 591, 601, 611, 621, 631, 641, 651, 661, 671, 681, 691, 701, 711, 721, 731, 741, 751, 761, 771, 781, 791, 801, 811, 821, 831, 841, 851, 861]","1051","1920","[960, 960, 960, 960, 960, 960, 960, 960, 960, 960, 960, 960, 962, 963, 964, 965, 967, 970, 974, 978, 994, 1002, 1010, 1023, 1039, 1046, 1056, 1069, 1095, 1113, 1130, 1147, 1182, 1193, 1207, 1220, 1239, 1246, 1252, 1261, 1286, 1294, 1305, 1312, 1331, 1341, 1347, 1355, 1367, 1375, 1381, 1389, 1402, 1409, 1419, 1428, 1446, 1460, 1470, 1481, 1506, 1519, 1535, 1552, 1585, 1601, 1628, 1650, 1699, 1721, 1741, 1758, 1784, 1792, 1797, 1800, 1801, 1801, 1801, 1801, 1801, 1801, 1801, 1801, 1801, 1801]","[1010, 1010, 1010, 1010, 1010, 1010, 1010, 1010, 1009, 1006, 1002, 999, 994, 991, 988, 984, 977, 967, 958, 948, 904, 879, 854, 829, 786, 766, 742, 718, 665, 637, 607, 580, 525, 503, 479, 457, 424, 413, 403, 390, 346, 335, 319, 309, 283, 269, 259, 246, 222, 206, 193, 180, 162, 153, 141, 132, 119, 108, 99, 90, 75, 68, 62, 56, 53, 49, 46, 46, 43, 43, 43, 43, 43, 43, 43, 43, 43, 43, 43, 43, 43, 43, 43, 43, 43, 43]"
"Trust","Teilnehmer A hat Ihnen 2 Punkte übermittelt.","Payback","0","undefined","14","0","4","60","1080","261","10","2","1099","0","legacy","[11, 21, 31, 41, 51, 61, 71, 81, 91, 101, 111, 121, 131, 141, 151, 161, 171, 181, 191, 201, 211, 221, 231, 241, 251, 261, 271, 281, 291, 301, 311, 321, 331, 341, 351, 361, 371, 381, 391, 401, 411, 421, 431, 441, 451, 461, 471, 481, 491, 501, 511, 521, 531, 541, 551, 561, 571, 581, 591, 601, 611, 621, 631, 641, 651, 661, 671, 681, 691, 701, 711, 721, 731, 741, 751, 761, 771, 781, 791, 801, 811, 821, 831, 841, 851, 861, 871, 881, 891, 901, 911, 921, 931, 941, 951, 961, 971, 981, 991, 1001, 1011, 1021, 1031, 1041, 1051, 1061, 1071, 1081, 1091]","1051","1920","[960, 960, 960, 960, 960, 960, 960, 960, 960, 960, 960, 960, 960, 960, 961, 961, 961, 961, 961, 961, 961, 961, 961, 961, 961, 962, 964, 965, 970, 975, 979, 984, 991, 995, 997, 1002, 1010, 1014, 1019, 1025, 1039, 1046, 1055, 1064, 1086, 1096, 1111, 1128, 1160, 1173, 1187, 1200, 1224, 1236, 1249, 1265, 1286, 1295, 1307, 1316, 1334, 1344, 1352, 1362, 1377, 1385, 1394, 1401, 1418, 1427, 1433, 1440, 1455, 1461, 1468, 1476, 1493, 1504, 1515, 1528, 1553, 1565, 1574, 1585, 1603, 1610, 1616, 1624, 1642, 1650, 1658, 1665, 1674, 1677, 1681, 1684, 1693, 1698, 1701, 1704, 1705, 1705, 1705, 1705, 1705, 1705, 1705, 1705, 1705]","[1010, 1010, 1010, 1010, 1010, 1010, 1010, 1010, 1010, 1010, 1010, 1010, 1010, 1010, 1008, 1005, 1002, 1000, 997, 994, 984, 979, 972, 964, 945, 934, 923, 913, 890, 879, 869, 856, 831, 818, 807, 795, 765, 754, 742, 730, 697, 682, 666, 652, 614, 595, 571, 546, 494, 467, 445, 423, 386, 365, 331, 296, 256, 242, 223, 209, 183, 171, 157, 147, 129, 121, 115, 108, 94, 86, 81, 75, 64, 59, 55, 52, 48, 44, 43, 43, 43, 43, 43, 43, 43, 43, 44, 44, 45, 45, 45, 45, 45, 45, 45, 45, 43, 42, 42, 40, 40, 40, 40, 40, 40, 40, 40, 40, 40]"
"Promise","Wie oft werden Sie die Hälfte zurückgeben?","Promise","0","undefined","14","0","5","60","1080","251","10","2","1158","0","legacy","[11, 21, 31, 41, 51, 61, 71, 81, 91, 101, 111, 121, 131, 141, 151, 161, 171, 181, 191, 201, 211, 221, 231, 241, 251, 261, 271, 281, 291, 301, 311, 321, 331, 341, 351, 361, 371, 381, 391, 401, 411, 421, 431, 441, 451, 461, 471, 481, 491, 501, 511, 521, 531, 541, 551, 561, 571, 581, 591, 601, 611, 621, 631, 641, 651, 661, 671, 681, 691, 701, 711, 721, 731, 741, 751, 761, 771, 781, 791, 801, 811, 821, 831, 841, 851, 861, 871, 881, 891, 901, 911, 921, 931, 941, 951, 961, 971, 981, 991, 1001, 1011, 1021, 1031, 1041, 1051, 1061, 1071, 1081, 1091, 1101, 1111, 1121, 1131, 1141, 1151]","1051","1920","[960, 960, 960, 960, 960, 960, 960, 960, 960, 960, 960, 960, 960, 960, 960, 960, 959, 959, 959, 959, 959, 959, 959, 959, 959, 959, 962, 967, 970, 974, 983, 988, 992, 1000, 1014, 1024, 1031, 1037, 1052, 1057, 1063, 1068, 1079, 1085, 1092, 1102, 1129, 1141, 1156, 1170, 1189, 1197, 1204, 1211, 1222, 1226, 1232, 1238, 1249, 1254, 1261, 1268, 1282, 1288, 1295, 1301, 1313, 1316, 1320, 1326, 1337, 1346, 1355, 1365, 1392, 1409, 1421, 1438, 1469, 1485, 1499, 1511, 1534, 1544, 1555, 1562, 1579, 1588, 1597, 1605, 1625, 1633, 1643, 1653, 1670, 1676, 1683, 1689, 1698, 1703, 1709, 1715, 1727, 1733, 1738, 1744, 1750, 1751, 1752, 1752, 1752, 1752, 1752, 1752, 1752]","[1010, 1010, 1010, 1010, 1010, 1010, 1010, 1010, 1010, 1010, 1010, 1010, 1010, 1010, 1009, 1006, 1004, 1001, 993, 986, 981, 974, 955, 944, 933, 921, 897, 883, 869, 859, 835, 821, 802, 780, 739, 723, 711, 700, 682, 673, 665, 656, 637, 626, 613, 596, 547, 528, 510, 495, 469, 456, 446, 434, 415, 408, 399, 388, 366, 355, 342, 330, 309, 300, 294, 287, 276, 272, 269, 264, 256, 252, 246, 241, 231, 226, 223, 216, 208, 204, 201, 196, 189, 185, 181, 179, 172, 170, 165, 162, 157, 153, 152, 148, 144, 142, 139, 137, 133, 131, 128, 126, 121, 118, 116, 113, 111, 110, 109, 109, 109, 109, 109, 109, 109]"
"Trust","Teilnehmer A hat Ihnen 2 Punkte übermittelt.","Payback","0","undefined","15","0","5","60","1080","251","10","2","1074","0","legacy","[11, 21, 31, 41, 51, 61, 71, 81, 91, 101, 111, 121, 131, 141, 151, 161, 171, 181, 191, 201, 211, 221, 231, 241, 251, 261, 271, 281, 291, 301, 311, 321, 331, 341, 351, 361, 371, 381, 391, 401, 411, 421, 431, 441, 451, 461, 471, 481, 491, 501, 511, 521, 531, 541, 551, 561, 571, 581, 591, 601, 611, 621, 631, 641, 651, 661, 671, 681, 691, 701, 711, 721, 731, 741, 751, 761, 771, 781, 791, 801, 811, 821, 831, 841, 851, 861, 871, 881, 891, 901, 911, 921, 931, 941, 951, 961, 971, 981, 991, 1001, 1011, 1021, 1031, 1041, 1051, 1061, 1071]","1051","1920","[960, 960, 960, 960, 960, 960, 960, 960, 960, 960, 960, 960, 960, 960, 960, 960, 960, 960, 960, 960, 962, 965, 971, 983, 1015, 1030, 1048, 1062, 1091, 1102, 1112, 1124, 1141, 1148, 1154, 1161, 1173, 1182, 1191, 1199, 1218, 1226, 1238, 1246, 1273, 1289, 1305, 1318, 1340, 1350, 1356, 1364, 1376, 1382, 1388, 1393, 1403, 1411, 1419, 1429, 1462, 1479, 1500, 1522, 1557, 1571, 1581, 1589, 1599, 1604, 1610, 1614, 1626, 1634, 1641, 1649, 1666, 1673, 1679, 1688, 1699, 1707, 1711, 1714, 1721, 1721, 1722, 1722, 1724, 1725, 1728, 1730, 1732, 1734, 1736, 1736, 1736, 1736, 1736, 1736, 1736, 1736, 1736, 1736, 1736, 1736, 1736]","[1010, 1010, 1010, 1010, 1010, 1010, 1010, 1010, 1010, 1010, 1010, 1010, 1010, 1010, 1010, 1010, 1010, 1010, 1010, 1009, 998, 990, 977, 954, 902, 877, 852, 832, 792, 775, 759, 740, 712, 701, 691, 678, 656, 643, 631, 619, 591, 580, 566, 555, 519, 496, 476, 456, 411, 388, 370, 355, 336, 329, 319, 313, 298, 288, 276, 263, 222, 204, 184, 168, 149, 141, 136, 133, 127, 125, 122, 120, 115, 112, 109, 107, 103, 100, 98, 95, 93, 91, 90, 90, 89, 89, 89, 89, 89, 89, 87, 87, 86, 86, 85, 85, 85, 85, 85, 85, 85, 85, 85, 85, 85, 85, 85]"
"NoTrust","Teilnehmer A hat Ihnen keine 2 Punkte übermittelt.","Payback","0","undefined","16","0","5","60","1080","251","0","2","1074","0","legacy","[11, 21, 31, 41, 51, 61, 71, 81, 91, 101, 111, 121, 131, 141, 151, 161, 171, 181, 191, 201, 211, 221, 231, 241, 251, 261, 271, 281, 291, 301, 311, 321, 331, 341, 351, 361, 371, 381, 391, 401, 411, 421, 431, 441, 451, 461, 471, 481, 491, 501, 511, 521, 531, 541, 551, 561, 571, 581, 591, 601, 611, 621, 631, 641, 651, 661, 671, 681, 691, 701, 711, 721, 731, 741, 751, 761, 771, 781, 791, 801, 811, 821, 831, 841, 851, 861, 871, 881, 891, 901, 911, 921, 931, 941, 951, 961, 971, 981, 991, 1001, 1011, 1021, 1031, 1041, 1051, 1061, 1071]","1051","1920","[960, 960, 960, 960, 960, 960, 960, 960, 960, 960, 960, 960, 960, 960, 960, 960, 960, 960, 960, 960, 962, 965, 971, 983, 1015, 1030, 1048, 1062, 1091, 1102, 1112, 1124, 1141, 1148, 1154, 1161, 1173, 1182, 1191, 1199, 1218, 1226, 1238, 1246, 1273, 1289, 1305, 1318, 1340, 1350, 1356, 1364, 1376, 1382, 1388, 1393, 1403, 1411, 1419, 1429, 1462, 1479, 1500, 1522, 1557, 1571, 1581, 1589, 1599, 1604, 1610, 1614, 1626, 1634, 1641, 1649, 1666, 1673, 1679, 1688, 1699, 1707, 1711, 1714, 1721, 1721, 1722, 1722, 1724, 1725, 1728, 1730, 1732, 1734, 1736, 1736, 1736, 1736, 1736, 1736, 1736, 1736, 1736, 1736, 1736, 1736, 1736]","[1010, 1010, 1010, 1010, 1010, 1010, 1010, 1010, 1010, 1010, 1010, 1010, 1010, 1010, 1010, 1010, 1010, 1010, 1010, 1009, 998, 990, 977, 954, 902, 877, 852, 832, 792, 775, 759, 740, 712, 701, 691, 678, 656, 643, 631, 619, 591, 580, 566, 555, 519, 496, 476, 456, 411, 388, 370, 355, 336, 329, 319, 313, 298, 288, 276, 263, 222, 204, 184, 168, 149, 141, 136, 133, 127, 125, 122, 120, 115, 112, 109, 107, 103, 100, 98, 95, 93, 91, 90, 90, 89, 89, 89, 89, 89, 89, 87, 87, 86, 86, 85, 85, 85, 85, 85, 85, 85, 85, 85, 85, 85, 85, 85]"
"Trust","Teilnehmer A hat Ihnen 2 Punkte übermittelt.","Payback","0","undefined","17","0","5","60","1080","301","10","2","987","0","legacy","[11, 21, 31, 41, 51, 61, 71, 81, 91, 101, 111, 121, 131, 141, 151, 161, 171, 181, 191, 201, 211, 221, 231, 241, 251, 261, 271, 281, 291, 301, 311, 321, 331, 341, 351, 361, 371, 381, 391, 401, 411, 421, 431, 441, 451, 461, 471, 481, 491, 501, 511, 521, 531, 541, 551, 561, 571, 581, 591, 601, 611, 621, 631, 641, 651, 661, 671, 681, 691, 701, 711, 721, 731, 741, 751, 761, 771, 781, 791, 801, 811, 821, 831, 841, 851, 861, 871, 881, 891, 901, 911, 921, 931, 941, 951, 961, 971, 981]","1051","1920","[960, 960, 960, 960, 960, 960, 960, 960, 960, 960, 960, 960, 960, 960, 960, 960, 960, 960, 960, 960, 960, 960, 960, 960, 960, 960, 959, 958, 957, 954, 954, 954, 954, 954, 956, 967, 976, 1001, 1018, 1032, 1051, 1087, 1105, 1118, 1131, 1148, 1159, 1167, 1179, 1195, 1204, 1213, 1221, 1239, 1249, 1258, 1266, 1285, 1294, 1309, 1329, 1356, 1378, 1389, 1401, 1428, 1446, 1462, 1477, 1502, 1517, 1529, 1545, 1570, 1586, 1599, 1613, 1637, 1645, 1656, 1666, 1683, 1688, 1692, 1694, 1700, 1701, 1703, 1705, 1711, 1714, 1720, 1722, 1726, 1726, 1726, 1726, 1726]","[1010, 1010, 1010, 1010, 1010, 1010, 1010, 1010, 1010, 1010, 1010, 1010, 1010, 1010, 1010, 1010, 1010, 1010, 1009, 1007, 1006, 1002, 999, 995, 990, 972, 961, 950, 940, 915, 903, 888, 868, 815, 775, 739, 700, 629, 595, 565, 537, 491, 468, 451, 438, 417, 403, 393, 379, 358, 346, 335, 328, 309, 299, 287, 278, 257, 245, 231, 218, 199, 188, 180, 173, 160, 154, 147, 141, 130, 124, 118, 113, 106, 101, 98, 94, 86, 84, 83, 80, 74, 74, 73, 73, 73, 73, 73, 71, 70, 69, 67, 67, 67, 67, 67, 67, 67]"
"Promise","Wie oft werden Sie die Hälfte zurückgeben?","Promise","0","undefined","17","0","6","60","1080","171","10","2","671","0","legacy","[11, 21, 31, 41, 51, 61, 71, 81, 91, 101, 111, 121, 131, 141, 151, 161, 171, 181, 191, 201, 211, 221, 231, 241, 251, 261, 271, 281, 291, 301, 311, 321, 331, 341, 351, 361, 371, 381, 391, 401, 411, 421, 431, 441, 451, 461, 471, 481, 491, 501, 511, 521, 531, 541, 551, 561, 571, 581, 591, 601, 611, 621, 631, 641, 651, 661, 671]","1051","1920","[960, 960, 960, 960, 960, 960, 960, 960, 960, 960, 960, 962, 964, 968, 970, 978, 982, 989, 996, 1018, 1026, 1038, 1046, 1063, 1078, 1087, 1095, 1115, 1128, 1141, 1156, 1188, 1206, 1234, 1265, 1334, 1370, 1405, 1441, 1496, 1521, 1544, 1564, 1590, 1602, 1610, 1617, 1630, 1636, 1645, 1658, 1689, 1705, 1720, 1738, 1765, 1774, 1782, 1787, 1791, 1791, 1791, 1791, 1791, 1791, 1791, 1791]","[1010, 1010, 1010, 1010, 1010, 1010, 1010, 1010, 1010, 1010, 1010, 999, 991, 981, 969, 945, 933, 916, 896, 848, 821, 776, 746, 680, 643, 615, 579, 509, 485, 458, 436, 389, 368, 347, 325, 280, 260, 241, 219, 182, 163, 147, 133, 115, 104, 94, 85, 68, 62, 56, 51, 38, 29, 24, 17, 5, 1, 0, 0, 0, 0, 0, 0, 0, 0, 0, 0]"
"Trust","Teilnehmer A hat Ihnen 2 Punkte übermittelt.","Payback","0","undefined","18","0","6","60","1080","181","10","2","939","0","legacy","[11, 21, 31, 41, 51, 61, 71, 81, 91, 101, 111, 121, 131, 141, 151, 161, 171, 181, 191, 201, 211, 221, 231, 241, 251, 261, 271, 281, 291, 301, 311, 321, 331, 341, 351, 361, 371, 381, 391, 401, 411, 421, 431, 441, 451, 461, 471, 481, 491, 501, 511, 521, 531, 541, 551, 561, 571, 581, 591, 601, 611, 621, 631, 641, 651, 661, 671, 681, 691, 701, 711, 721, 731, 741, 751, 761, 771, 781, 791, 801, 811, 821, 831, 841, 851, 861, 871, 881, 891, 901, 911, 921, 931]","1051","1920","[960, 960, 960, 960, 960, 960, 960, 960, 960, 960, 960, 960, 960, 960, 960, 960, 960, 960, 960, 960, 960, 976, 986, 995, 1008, 1029, 1039, 1047, 1055, 1067, 1074, 1079, 1083, 1098, 1102, 1114, 1126, 1157, 1177, 1200, 1220, 1255, 1269, 1278, 1284, 1301, 1307, 1316, 1322, 1344, 1353, 1363, 1374, 1398, 1409, 1419, 1429, 1444, 1451, 1456, 1461, 1477, 1486, 1494, 1506, 1530, 1544, 1558, 1578, 1604, 1617, 1626, 1633, 1647, 1652, 1657, 1662, 1675, 1680, 1687, 1696, 1709, 1714, 1719, 1721, 1725, 1728, 1730, 1732, 1738, 1738, 1738, 1738]","[1010, 1010, 1010, 1010, 1010, 1010, 1010, 1010, 1010, 1010, 1010, 1010, 1006, 991, 980, 968, 955, 928, 917, 904, 893, 854, 830, 805, 768, 701, 677, 652, 624, 580, 560, 540, 529, 498, 485, 465, 450, 422, 407, 393, 377, 348, 335, 324, 317, 300, 295, 288, 283, 272, 267, 263, 258, 249, 243, 239, 233, 223, 217, 212, 207, 198, 192, 187, 182, 173, 168, 163, 158, 149, 144, 137, 134, 125, 120, 116, 112, 104, 102, 96, 93, 88, 86, 84, 83, 81, 79, 78, 77, 75, 75, 75, 75]"
"Trust","Teilnehmer A hat Ihnen 2 Punkte übermittelt.","Payback","0","undefined","19","0","6","60","1080","181","10","2","747","0","legacy","[11, 21, 31, 41, 51, 61, 71, 81, 91, 101, 111, 121, 131, 141, 151, 161, 171, 181, 191, 201, 211, 221, 231, 241, 251, 261, 271, 281, 291, 301, 311, 321, 331, 341, 351, 361, 371, 381, 391, 401, 411, 421, 431, 441, 451, 461, 471, 481, 491, 501, 511, 521, 531, 541, 551, 561, 571, 581, 591, 601, 611, 621, 631, 641, 651, 661, 671, 681, 691, 701, 711, 721, 731, 741]","1051","1920","[960, 960, 960, 960, 960, 960, 960, 960, 960, 961, 961, 961, 961, 961, 961, 961, 961, 961, 961, 971, 985, 1026, 1055, 1081, 1117, 1176, 1207, 1237, 1261, 1311, 1343, 1372, 1398, 1444, 1474, 1498, 1525, 1569, 1590, 1608, 1629, 1663, 1681, 1700, 1717, 1745, 1755, 1766, 1776, 1797, 1807, 1818, 1830, 1858, 1873, 1884, 1896, 1911, 1917, 1919, 1919, 1919, 1919, 1919, 1919, 1919, 1919, 1919, 1919, 1919, 1919, 1919, 1919, 1919]","[1010, 1010, 1010, 1010, 1010, 1010, 1010, 1010, 1010, 1010, 1006, 1003, 997, 980, 969, 956, 942, 909, 894, 873, 844, 773, 733, 692, 652, 561, 511, 467, 421, 331, 286, 240, 208, 144, 112, 78, 53, 14, 0, 0, 0, 0, 0, 0, 0, 0, 0, 0, 0, 0, 0, 0, 0, 4, 10, 15, 22, 35, 42, 47, 53, 58, 62, 63, 63, 64, 64, 64, 64, 64, 64, 64, 64, 64]"
"Trust","Teilnehmer A hat Ihnen 2 Punkte übermittelt.","Payback","0","undefined","20","0","6","60","1080","211","10","2","906","0","legacy","[11, 21, 31, 41, 51, 61, 71, 81, 91, 101, 111, 121, 131, 141, 151, 161, 171, 181, 191, 201, 211, 221, 231, 241, 251, 261, 271, 281, 291, 301, 311, 321, 331, 341, 351, 361, 371, 381, 391, 401, 411, 421, 431, 441, 451, 461, 471, 481, 491, 501, 511, 521, 531, 541, 551, 561, 571, 581, 591, 601, 611, 621, 631, 641, 651, 661, 671, 681, 691, 701, 711, 721, 731, 741, 751, 761, 771, 781, 791, 801, 811, 821, 831, 841, 851, 861, 871, 881, 891, 901]","1051","1920","[960, 960, 960, 960, 960, 960, 960, 960, 960, 960, 960, 960, 961, 961, 963, 963, 965, 967, 969, 970, 974, 977, 981, 988, 1009, 1017, 1025, 1036, 1054, 1063, 1071, 1080, 1100, 1109, 1118, 1126, 1141, 1147, 1153, 1161, 1178, 1194, 1216, 1237, 1286, 1305, 1321, 1331, 1352, 1360, 1367, 1374, 1388, 1397, 1406, 1413, 1425, 1431, 1438, 1445, 1458, 1468, 1477, 1486, 1508, 1521, 1531, 1539, 1554, 1563, 1569, 1577, 1595, 1605, 1617, 1629, 1653, 1660, 1667, 1672, 1677, 1680, 1681, 1683, 1691, 1696, 1702, 1705, 1709, 1709]","[1010, 1010, 1010, 1010, 1010, 1010, 1010, 1010, 1010, 1010, 1010, 1010, 1011, 1011, 1009, 1008, 998, 988, 977, 966, 939, 923, 904, 884, 835, 816, 798, 777, 743, 729, 714, 697, 660, 646, 636, 626, 608, 600, 591, 580, 556, 534, 503, 475, 417, 396, 380, 368, 344, 336, 329, 323, 308, 297, 288, 279, 262, 253, 244, 235, 220, 210, 203, 195, 180, 173, 167, 162, 149, 142, 138, 133, 124, 119, 115, 113, 107, 103, 102, 99, 97, 95, 95, 94, 90, 90, 88, 87, 86, 86]"
"Promise","Wie oft werden Sie die Hälfte zurückgeben?","Promise","0","undefined","20","0","7","60","1080","201","10","2","678","0","legacy","[11, 21, 31, 41, 51, 61, 71, 81, 91, 101, 111, 121, 131, 141, 151, 161, 171, 181, 191, 201, 211, 221, 231, 241, 251, 261, 271, 281, 291, 301, 311, 321, 331, 341, 351, 361, 371, 381, 391, 401, 411, 421, 431, 441, 451, 461, 471, 481, 491, 501, 511, 521, 531, 541, 551, 561, 571, 581, 591, 601, 611, 621, 631, 641, 651, 661, 671]","1051","1920","[960, 960, 960, 960, 960, 960, 960, 960, 960, 960, 960, 960, 960, 960, 960, 960, 960, 963, 976, 987, 999, 1009, 1047, 1063, 1089, 1107, 1151, 1173, 1196, 1217, 1270, 1291, 1317, 1343, 1392, 1417, 1438, 1461, 1497, 1511, 1524, 1536, 1555, 1564, 1574, 1581, 1600, 1607, 1615, 1621, 1635, 1639, 1643, 1648, 1654, 1657, 1660, 1664, 1672, 1678, 1683, 1689, 1690, 1690, 1690, 1690, 1690]","[1010, 1010, 1010, 1010, 1010, 1010, 1010, 1010, 1010, 1010, 1010, 1009, 1007, 1003, 993, 986, 982, 972, 950, 935, 918, 906, 862, 844, 815, 789, 725, 697, 666, 633, 560, 532, 503, 471, 421, 392, 363, 337, 284, 262, 238, 218, 183, 165, 151, 139, 117, 110, 102, 96, 79, 73, 67, 60, 53, 52, 50, 49, 47, 45, 44, 42, 42, 42, 42, 42, 42]"
"Trust","Teilnehmer A hat Ihnen 2 Punkte übermittelt.","Payback","0","undefined","21","0","7","60","1080","171","10","2","682","0","legacy","[11, 21, 31, 41, 51, 61, 71, 81, 91, 101, 111, 121, 131, 141, 151, 161, 171, 181, 191, 201, 211, 221, 231, 241, 251, 261, 271, 281, 291, 301, 311, 321, 331, 341, 351, 361, 371, 381, 391, 401, 411, 421, 431, 441, 451, 461, 471, 481, 491, 501, 511, 521, 531, 541, 551, 561, 571, 581, 591, 601, 611, 621, 631, 641, 651, 661, 671, 681]","1051","1920","[960, 960, 960, 960, 960, 960, 960, 960, 960, 960, 960, 961, 962, 963, 966, 971, 978, 983, 987, 993, 1002, 1011, 1018, 1027, 1041, 1050, 1058, 1069, 1093, 1104, 1119, 1137, 1171, 1195, 1220, 1246, 1293, 1319, 1346, 1376, 1425, 1449, 1466, 1490, 1535, 1553, 1573, 1586, 1617, 1626, 1637, 1648, 1669, 1680, 1692, 1704, 1721, 1726, 1731, 1735, 1741, 1742, 1742, 1742, 1742, 1742, 1742, 1742]","[1010, 1010, 1010, 1010, 1010, 1010, 1010, 1010, 1010, 1010, 1009, 1003, 991, 981, 969, 956, 929, 914, 898, 873, 822, 781, 748, 720, 662, 634, 606, 570, 512, 486, 449, 419, 374, 352, 333, 314, 281, 263, 247, 230, 202, 187, 176, 163, 142, 133, 121, 114, 94, 87, 78, 68, 50, 45, 41, 38, 34, 33, 33, 32, 32, 31, 31, 31, 31, 31, 31, 31]"
"Trust","Teilnehmer A hat Ihnen 2 Punkte übermittelt.","Payback","0","undefined","22","0","7","60","1080","221","10","2","730","0","legacy","[11, 21, 31, 41, 51, 61, 71, 81, 91, 101, 111, 121, 131, 141, 151, 161, 171, 181, 191, 201, 211, 221, 231, 241, 251, 261, 271, 281, 291, 301, 311, 321, 331, 341, 351, 361, 371, 381, 391, 401, 411, 421, 431, 441, 451, 461, 471, 481, 491, 501, 511, 521, 531, 541, 551, 561, 571, 581, 591, 601, 611, 621, 631, 641, 651, 661, 671, 681, 691, 701, 711, 721]","1051","1920","[960, 960, 960, 960, 960, 960, 960, 960, 960, 960, 960, 960, 960, 960, 961, 962, 966, 967, 967, 969, 971, 975, 978, 985, 1013, 1036, 1065, 1091, 1152, 1182, 1210, 1229, 1273, 1293, 1309, 1320, 1343, 1355, 1368, 1377, 1403, 1419, 1437, 1451, 1483, 1500, 1518, 1541, 1582, 1603, 1626, 1645, 1681, 1695, 1710, 1722, 1748, 1759, 1768, 1775, 1785, 1788, 1791, 1792, 1798, 1803, 1809, 1818, 1832, 1835, 1838, 1838]","[1010, 1010, 1010, 1010, 1010, 1010, 1010, 1010, 1010, 1010, 1010, 1010, 1010, 1010, 1008, 1005, 992, 983, 977, 967, 942, 922, 901, 879, 818, 779, 743, 704, 632, 595, 561, 533, 472, 439, 409, 383, 340, 321, 299, 283, 248, 226, 205, 187, 157, 142, 128, 112, 75, 57, 39, 26, 3, 0, 0, 0, 0, 0, 0, 0, 0, 0, 0, 0, 0, 0, 1, 2, 7, 9, 10, 10]"
"Trust","Teilnehmer A hat Ihnen 2 Punkte übermittelt.","Payback","0","undefined","23","0","7","60","1080","211","10","2","739","0","legacy","[11, 21, 31, 41, 51, 61, 71, 81, 91, 101, 111, 121, 131, 141, 151, 161, 171, 181, 191, 201, 211, 221, 231, 241, 251, 261, 271, 281, 291, 301, 311, 321, 331, 341, 351, 361, 371, 381, 391, 401, 411, 421, 431, 441, 451, 461, 471, 481, 491, 501, 511, 521, 531, 541, 551, 561, 571, 581, 591, 601, 611, 621, 631, 641, 651, 661, 671, 681, 691, 701, 711, 721, 731]","1051","1920","[960, 960, 960, 960, 960, 960, 960, 960, 960, 960, 960, 960, 962, 963, 963, 963, 963, 963, 965, 967, 969, 975, 979, 980, 988, 1005, 1013, 1023, 1037, 1066, 1082, 1100, 1117, 1165, 1188, 1220, 1249, 1306, 1335, 1361, 1386, 1430, 1450, 1472, 1495, 1531, 1547, 1564, 1578, 1607, 1620, 1631, 1645, 1679, 1691, 1702, 1711, 1729, 1739, 1750, 1759, 1777, 1787, 1797, 1805, 1818, 1821, 1824, 1824, 1826, 1826, 1826, 1826]","[1010, 1010, 1010, 1010, 1010, 1010, 1010, 1010, 1010, 1010, 1010, 1010, 1007, 1002, 999, 995, 989, 969, 959, 947, 934, 907, 889, 866, 840, 782, 757, 726, 696, 638, 610, 587, 560, 498, 466, 427, 388, 324, 297, 265, 236, 199, 185, 169, 153, 119, 104, 85, 70, 37, 24, 16, 4, 0, 0, 0, 0, 0, 0, 0, 0, 0, 0, 3, 8, 16, 19, 20, 21, 23, 23, 23, 23]"
CHF,TotCHF,final_payoff,sum
"17.5","37.5","[10, 5, 10, 10]","35"
