Condition,PromiseStage,Stage,accuracy,avg_rt,count_decision_sequence,count_loop1,count_trial_sequence,font_size,height,init_time,payoff,response,rt,subject_nr,synth_backend,tTrajectory,time_experiment,width,xTrajectory,yTrajectory
"Promise","Wie oft werden Sie die Hälfte zurückgeben?","Promise","1","undefined","NA","0","0","60","1080","611","NA","1","1678","0","legacy","[11, 21, 31, 41, 51, 61, 71, 81, 91, 101, 111, 121, 131, 141, 151, 161, 171, 181, 191, 201, 211, 221, 231, 241, 251, 261, 271, 281, 291, 301, 311, 321, 331, 341, 351, 361, 371, 381, 391, 401, 411, 421, 431, 441, 451, 461, 471, 481, 491, 501, 511, 521, 531, 541, 551, 561, 571, 581, 591, 601, 611, 621, 631, 641, 651, 661, 671, 681, 691, 701, 711, 721, 731, 741, 751, 761, 771, 781, 791, 801, 811, 821, 831, 841, 851, 861, 871, 881, 891, 901, 911, 921, 931, 941, 951, 961, 971, 981, 991, 1001, 1011, 1021, 1031, 1041, 1051, 1061, 1071, 1081, 1091, 1101, 1111, 1121, 1131, 1141, 1151, 1161, 1171, 1181, 1191, 1201, 1211, 1221, 1231, 1241, 1251, 1261, 1271, 1281, 1291, 1301, 1311, 1321, 1331, 1341, 1351, 1361, 1371, 1381, 1391, 1401, 1411, 1421, 1431, 1441, 1451, 1461, 1471, 1481, 1491, 1501, 1511, 1521, 1531, 1541, 1551, 1561, 1571, 1581, 1591, 1601, 1611, 1621, 1631, 1641, 1651, 1661, 1671]","1078","1920","[960, 960, 960, 960, 960, 960, 960, 960, 960, 960, 960, 960, 960, 960, 960, 960, 960, 960, 960, 960, 960, 960, 960, 960, 960, 960, 960, 960, 960, 960, 960, 960, 960, 960, 960, 960, 960, 960, 960, 960, 960, 960, 960, 960, 960, 960, 960, 960, 960, 959, 959, 960, 961, 962, 965, 968, 972, 977, 992, 1001, 1015, 1032, 1066, 1082, 1098, 1112, 1141, 1158, 1172, 1188, 1217, 1232, 1244, 1256, 1276, 1287, 1297, 1304, 1320, 1326, 1335, 1343, 1359, 1369, 1376, 1385, 1403, 1409, 1418, 1427, 1442, 1449, 1454, 1460, 1469, 1475, 1480, 1486, 1501, 1513, 1524, 1534, 1556, 1567, 1578, 1589, 1606, 1613, 1620, 1626, 1638, 1644, 1648, 1651, 1656, 1658, 1660, 1663, 1667, 1668, 1668, 1668, 1668, 1670, 1671, 1672, 1675, 1675, 1675, 1675, 1676, 1676, 1676, 1678, 1678, 1679, 1679, 1680, 1680, 1680, 1680, 1680, 1680, 1680, 1680, 1680, 1680, 1680, 1680, 1680, 1680, 1680, 1680, 1680, 1680, 1680, 1680, 1680, 1680, 1680, 1680, 1680, 1680, 1680, 1680, 1680, 1680]","[1010, 1010, 1010, 1010, 1010, 1010, 1010, 1010, 1010, 1010, 1010, 1010, 1010, 1010, 1010, 1010, 1010, 1010, 1010, 1010, 1010, 1010, 1010, 1010, 1010, 1010, 1010, 1010, 1010, 1010, 1010, 1010, 1010, 1010, 1010, 1010, 1010, 1010, 1010, 1010, 1010, 1010, 1010, 1010, 1010, 1010, 1010, 1010, 1010, 1010, 1008, 1006, 1003, 1002, 996, 992, 987, 980, 962, 950, 935, 917, 882, 866, 852, 835, 788, 763, 743, 718, 678, 660, 648, 633, 611, 601, 593, 585, 572, 565, 554, 545, 525, 513, 503, 492, 477, 471, 464, 457, 444, 436, 430, 424, 411, 404, 397, 389, 369, 358, 351, 341, 323, 313, 304, 294, 273, 265, 256, 249, 227, 214, 201, 188, 171, 163, 155, 147, 131, 127, 124, 122, 115, 112, 105, 100, 93, 92, 91, 90, 89, 88, 88, 87, 87, 86, 86, 85, 85, 85, 85, 85, 85, 85, 85, 85, 85, 85, 85, 85, 85, 85, 85, 85, 85, 85, 85, 85, 85, 85, 85, 85, 85, 85, 85, 85, 85]"
Cond,DecisionB,Stage,accuracy,avg_rt,count_decision_sequence,count_loop1,count_trial_sequence,font_size,height,init_time,payoff,response,rt,subject_nr,synth_backend,tTrajectory,time_experiment,width,xTrajectory,yTrajectory
"NoTrust","Teilnehmer A hat Ihnen keine 2 Punkte übermittelt.","Payback","1","undefined","0","0","0","60","1080","611","0","1","1678","0","legacy","[11, 21, 31, 41, 51, 61, 71, 81, 91, 101, 111, 121, 131, 141, 151, 161, 171, 181, 191, 201, 211, 221, 231, 241, 251, 261, 271, 281, 291, 301, 311, 321, 331, 341, 351, 361, 371, 381, 391, 401, 411, 421, 431, 441, 451, 461, 471, 481, 491, 501, 511, 521, 531, 541, 551, 561, 571, 581, 591, 601, 611, 621, 631, 641, 651, 661, 671, 681, 691, 701, 711, 721, 731, 741, 751, 761, 771, 781, 791, 801, 811, 821, 831, 841, 851, 861, 871, 881, 891, 901, 911, 921, 931, 941, 951, 961, 971, 981, 991, 1001, 1011, 1021, 1031, 1041, 1051, 1061, 1071, 1081, 1091, 1101, 1111, 1121, 1131, 1141, 1151, 1161, 1171, 1181, 1191, 1201, 1211, 1221, 1231, 1241, 1251, 1261, 1271, 1281, 1291, 1301, 1311, 1321, 1331, 1341, 1351, 1361, 1371, 1381, 1391, 1401, 1411, 1421, 1431, 1441, 1451, 1461, 1471, 1481, 1491, 1501, 1511, 1521, 1531, 1541, 1551, 1561, 1571, 1581, 1591, 1601, 1611, 1621, 1631, 1641, 1651, 1661, 1671]","1078","1920","[960, 960, 960, 960, 960, 960, 960, 960, 960, 960, 960, 960, 960, 960, 960, 960, 960, 960, 960, 960, 960, 960, 960, 960, 960, 960, 960, 960, 960, 960, 960, 960, 960, 960, 960, 960, 960, 960, 960, 960, 960, 960, 960, 960, 960, 960, 960, 960, 960, 959, 959, 960, 961, 962, 965, 968, 972, 977, 992, 1001, 1015, 1032, 1066, 1082, 1098, 1112, 1141, 1158, 1172, 1188, 1217, 1232, 1244, 1256, 1276, 1287, 1297, 1304, 1320, 1326, 1335, 1343, 1359, 1369, 1376, 1385, 1403, 1409, 1418, 1427, 1442, 1449, 1454, 1460, 1469, 1475, 1480, 1486, 1501, 1513, 1524, 1534, 1556, 1567, 1578, 1589, 1606, 1613, 1620, 1626, 1638, 1644, 1648, 1651, 1656, 1658, 1660, 1663, 1667, 1668, 1668, 1668, 1668, 1670, 1671, 1672, 1675, 1675, 1675, 1675, 1676, 1676, 1676, 1678, 1678, 1679, 1679, 1680, 1680, 1680, 1680, 1680, 1680, 1680, 1680, 1680, 1680, 1680, 1680, 1680, 1680, 1680, 1680, 1680, 1680, 1680, 1680, 1680, 1680, 1680, 1680, 1680, 1680, 1680, 1680, 1680, 1680]","[1010, 1010, 1010, 1010, 1010, 1010, 1010, 1010, 1010, 1010, 1010, 1010, 1010, 1010, 1010, 1010, 1010, 1010, 1010, 1010, 1010, 1010, 1010, 1010, 1010, 1010, 1010, 1010, 1010, 1010, 1010, 1010, 1010, 1010, 1010, 1010, 1010, 1010, 1010, 1010, 1010, 1010, 1010, 1010, 1010, 1010, 1010, 1010, 1010, 1010, 1008, 1006, 1003, 1002, 996, 992, 987, 980, 962, 950, 935, 917, 882, 866, 852, 835, 788, 763, 743, 718, 678, 660, 648, 633, 611, 601, 593, 585, 572, 565, 554, 545, 525, 513, 503, 492, 477, 471, 464, 457, 444, 436, 430, 424, 411, 404, 397, 389, 369, 358, 351, 341, 323, 313, 304, 294, 273, 265, 256, 249, 227, 214, 201, 188, 171, 163, 155, 147, 131, 127, 124, 122, 115, 112, 105, 100, 93, 92, 91, 90, 89, 88, 88, 87, 87, 86, 86, 85, 85, 85, 85, 85, 85, 85, 85, 85, 85, 85, 85, 85, 85, 85, 85, 85, 85, 85, 85, 85, 85, 85, 85, 85, 85, 85, 85, 85, 85]"
"Trust","Teilnehmer A hat Ihnen 2 Punkte übermittelt.","Payback","1","undefined","1","0","0","60","1080","391","5","1","1653","0","legacy","[11, 21, 31, 41, 51, 61, 71, 81, 91, 101, 111, 121, 131, 141, 151, 161, 171, 181, 191, 201, 211, 221, 231, 241, 251, 261, 271, 281, 291, 301, 311, 321, 331, 341, 351, 361, 371, 381, 391, 401, 411, 421, 431, 441, 451, 461, 471, 481, 491, 501, 511, 521, 531, 541, 551, 561, 571, 581, 591, 601, 611, 621, 631, 641, 651, 661, 671, 681, 691, 701, 711, 721, 731, 741, 751, 761, 771, 781, 791, 801, 811, 821, 831, 841, 851, 861, 871, 881, 891, 901, 911, 921, 931, 941, 951, 961, 971, 981, 991, 1001, 1011, 1021, 1031, 1041, 1051, 1061, 1071, 1081, 1091, 1101, 1111, 1121, 1131, 1141, 1151, 1161, 1171, 1181, 1191, 1201, 1211, 1221, 1231, 1241, 1251, 1261, 1271, 1281, 1291, 1301, 1311, 1321, 1331, 1341, 1351, 1361, 1371, 1381, 1391, 1401, 1411, 1421, 1431, 1441, 1451, 1461, 1471, 1481, 1491, 1501, 1511, 1521, 1531, 1541, 1551, 1561, 1571, 1581, 1591, 1601, 1611, 1621, 1631, 1641, 1651]","1078","1920","[960, 960, 960, 960, 960, 960, 960, 960, 960, 960, 960, 960, 960, 960, 960, 960, 960, 960, 960, 960, 960, 960, 960, 960, 960, 960, 960, 960, 960, 960, 960, 960, 962, 967, 977, 984, 994, 1006, 1036, 1054, 1071, 1097, 1147, 1170, 1201, 1233, 1291, 1317, 1338, 1361, 1397, 1413, 1425, 1442, 1476, 1485, 1496, 1510, 1535, 1546, 1559, 1567, 1586, 1595, 1601, 1608, 1621, 1625, 1629, 1632, 1634, 1638, 1639, 1642, 1645, 1647, 1648, 1649, 1651, 1652, 1652, 1653, 1654, 1655, 1656, 1657, 1660, 1660, 1662, 1664, 1672, 1674, 1679, 1683, 1688, 1692, 1693, 1695, 1698, 1699, 1700, 1701, 1702, 1703, 1703, 1703, 1704, 1704, 1706, 1706, 1708, 1709, 1709, 1709, 1710, 1710, 1711, 1712, 1713, 1716, 1716, 1717, 1719, 1719, 1719, 1719, 1719, 1720, 1721, 1721, 1721, 1721, 1721, 1721, 1721, 1721, 1721, 1721, 1721, 1721, 1721, 1721, 1721, 1721, 1721, 1721, 1721, 1721, 1721, 1721, 1721, 1721, 1721, 1721, 1721, 1721, 1721, 1721, 1721, 1721, 1721, 1721, 1721, 1721, 1721]","[1010, 1010, 1010, 1010, 1010, 1010, 1010, 1010, 1010, 1010, 1010, 1010, 1010, 1010, 1010, 1010, 1010, 1010, 1010, 1010, 1010, 1010, 1010, 1010, 1010, 1010, 1010, 1010, 1010, 1010, 1008, 1004, 1002, 997, 987, 981, 972, 961, 935, 920, 902, 881, 837, 817, 793, 765, 716, 694, 672, 654, 621, 607, 595, 577, 541, 529, 514, 497, 463, 446, 428, 413, 378, 360, 344, 327, 296, 282, 271, 259, 241, 233, 226, 217, 204, 200, 195, 189, 182, 180, 178, 175, 171, 169, 167, 164, 160, 159, 156, 153, 142, 137, 132, 125, 114, 110, 107, 104, 99, 98, 97, 96, 94, 93, 93, 93, 92, 91, 90, 90, 89, 89, 89, 88, 87, 87, 87, 86, 86, 84, 84, 83, 83, 83, 83, 83, 83, 82, 81, 81, 81, 81, 81, 81, 81, 81, 81, 81, 81, 81, 81, 81, 81, 81, 81, 81, 81, 81, 81, 81, 81, 81, 81, 81, 81, 81, 81, 81, 81, 81, 81, 81, 81, 81, 81]"
"Trust","Teilnehmer A hat Ihnen 2 Punkte übermittelt.","Payback","1","undefined","2","0","0","60","1080","541","5","1","1269","0","legacy","[11, 21, 31, 41, 51, 61, 71, 81, 91, 101, 111, 121, 131, 141, 151, 161, 171, 181, 191, 201, 211, 221, 231, 241, 251, 261, 271, 281, 291, 301, 311, 321, 331, 341, 351, 361, 371, 381, 391, 401, 411, 421, 431, 441, 451, 461, 471, 481, 491, 501, 511, 521, 531, 541, 551, 561, 571, 581, 591, 601, 611, 621, 631, 641, 651, 661, 671, 681, 691, 701, 711, 721, 731, 741, 751, 761, 771, 781, 791, 801, 811, 821, 831, 841, 851, 861, 871, 881, 891, 901, 911, 921, 931, 941, 951, 961, 971, 981, 991, 1001, 1011, 1021, 1031, 1041, 1051, 1061, 1071, 1081, 1091, 1101, 1111, 1121, 1131, 1141, 1151, 1161, 1171, 1181, 1191, 1201, 1211, 1221, 1231, 1241, 1251, 1261]","1078","1920","[960, 960, 960, 960, 960, 960, 960, 960, 960, 960, 960, 960, 960, 960, 960, 960, 960, 960, 960, 960, 960, 960, 960, 960, 960, 960, 960, 960, 960, 960, 960, 960, 960, 960, 960, 960, 960, 960, 960, 960, 960, 960, 960, 960, 960, 960, 960, 965, 973, 978, 996, 1012, 1035, 1064, 1124, 1154, 1185, 1218, 1280, 1308, 1331, 1351, 1383, 1402, 1415, 1424, 1451, 1465, 1476, 1490, 1518, 1533, 1545, 1556, 1575, 1584, 1595, 1602, 1620, 1629, 1637, 1648, 1678, 1694, 1709, 1725, 1745, 1750, 1755, 1757, 1762, 1763, 1764, 1764, 1764, 1764, 1764, 1764, 1764, 1764, 1764, 1764, 1764, 1764, 1764, 1764, 1764, 1764, 1764, 1764, 1764, 1764, 1764, 1764, 1764, 1764, 1764, 1764, 1764, 1764, 1764, 1764, 1764, 1764, 1764, 1764]","[1010, 1010, 1010, 1010, 1010, 1010, 1010, 1010, 1010, 1010, 1010, 1010, 1010, 1010, 1010, 1010, 1010, 1010, 1010, 1010, 1010, 1010, 1010, 1010, 1010, 1010, 1010, 1010, 1010, 1010, 1010, 1010, 1010, 1010, 1010, 1010, 1010, 1010, 1010, 1010, 1010, 1010, 1010, 1010, 1010, 1010, 1010, 1007, 1001, 997, 979, 966, 946, 922, 873, 844, 816, 783, 719, 690, 661, 638, 599, 578, 563, 551, 521, 506, 493, 478, 452, 438, 428, 418, 396, 385, 373, 362, 338, 324, 310, 289, 237, 205, 178, 151, 113, 99, 90, 81, 71, 66, 64, 63, 61, 60, 58, 57, 53, 51, 51, 50, 50, 50, 50, 50, 50, 50, 50, 50, 50, 50, 50, 50, 50, 50, 50, 50, 50, 50, 50, 50, 50, 50, 50, 50]"
"Promise","Wie oft werden Sie die Hälfte zurückgeben?","Promise","0","undefined","2","0","1","60","1080","421","5","2","1608","0","legacy","[11, 21, 31, 41, 51, 61, 71, 81, 91, 101, 111, 121, 131, 141, 151, 161, 171, 181, 191, 201, 211, 221, 231, 241, 251, 261, 271, 281, 291, 301, 311, 321, 331, 341, 351, 361, 371, 381, 391, 401, 411, 421, 431, 441, 451, 461, 471, 481, 491, 501, 511, 521, 531, 541, 551, 561, 571, 581, 591, 601, 611, 621, 631, 641, 651, 661, 671, 681, 691, 701, 711, 721, 731, 741, 751, 761, 771, 781, 791, 801, 811, 821, 831, 841, 851, 861, 871, 881, 891, 901, 911, 921, 931, 941, 951, 961, 971, 981, 991, 1001, 1011, 1021, 1031, 1041, 1051, 1061, 1071, 1081, 1091, 1101, 1111, 1121, 1131, 1141, 1151, 1161, 1171, 1181, 1191, 1201, 1211, 1221, 1231, 1241, 1251, 1261, 1271, 1281, 1291, 1301, 1311, 1321, 1331, 1341, 1351, 1361, 1371, 1381, 1391, 1401, 1411, 1421, 1431, 1441, 1451, 1461, 1471, 1481, 1491, 1501, 1511, 1521, 1531, 1541, 1551, 1561, 1571, 1581, 1591, 1601]","1078","1920","[960, 960, 960, 960, 960, 960, 960, 960, 960, 960, 960, 960, 960, 960, 960, 960, 960, 960, 960, 960, 960, 960, 960, 960, 960, 960, 960, 960, 960, 960, 960, 960, 960, 959, 955, 946, 938, 926, 910, 870, 845, 817, 792, 731, 700, 675, 647, 599, 580, 562, 544, 515, 503, 490, 480, 467, 460, 451, 445, 430, 423, 417, 409, 388, 381, 373, 363, 346, 338, 335, 330, 323, 319, 314, 312, 305, 303, 300, 300, 295, 294, 292, 292, 291, 291, 291, 291, 291, 291, 290, 290, 290, 290, 290, 290, 288, 288, 287, 287, 285, 285, 284, 284, 281, 280, 278, 277, 273, 271, 268, 265, 259, 255, 252, 248, 242, 240, 237, 235, 231, 229, 226, 225, 224, 224, 224, 224, 224, 223, 223, 223, 223, 223, 223, 223, 223, 223, 223, 223, 223, 223, 223, 223, 223, 223, 223, 223, 223, 223, 223, 223, 223, 223, 223, 223, 223, 223, 223, 223, 223]","[1010, 1010, 1010, 1010, 1010, 1010, 1010, 1010, 1010, 1010, 1010, 1010, 1010, 1010, 1010, 1010, 1010, 1010, 1010, 1010, 1010, 1010, 1010, 1010, 1010, 1010, 1010, 1010, 1010, 1010, 1010, 1010, 1010, 1010, 1010, 1006, 1000, 995, 983, 959, 944, 927, 906, 866, 847, 830, 807, 763, 742, 721, 698, 658, 637, 615, 596, 563, 543, 523, 507, 472, 456, 441, 423, 376, 356, 338, 312, 273, 253, 239, 223, 195, 179, 165, 153, 131, 124, 115, 111, 102, 99, 97, 97, 95, 95, 95, 95, 95, 95, 95, 95, 95, 95, 95, 95, 95, 95, 95, 95, 94, 94, 94, 94, 94, 94, 93, 93, 92, 92, 92, 92, 92, 90, 90, 90, 90, 90, 90, 90, 90, 90, 89, 89, 89, 89, 89, 89, 89, 89, 89, 89, 89, 89, 89, 89, 89, 89, 89, 89, 89, 89, 89, 89, 89, 89, 89, 89, 89, 89, 89, 89, 89, 89, 89, 89, 89, 89, 89, 89, 89]"
"Trust","Teilnehmer A hat Ihnen 2 Punkte übermittelt.","Payback","1","undefined","3","0","1","60","1080","1691","5","1","3278","0","legacy","[11, 21, 31, 41, 51, 61, 71, 81, 91, 101, 111, 121, 131, 141, 151, 161, 171, 181, 191, 201, 211, 221, 231, 241, 251, 261, 271, 281, 291, 301, 311, 321, 331, 341, 351, 361, 371, 381, 391, 401, 411, 421, 431, 441, 451, 461, 471, 481, 491, 501, 511, 521, 531, 541, 551, 561, 571, 581, 591, 601, 611, 621, 631, 641, 651, 661, 671, 681, 691, 701, 711, 721, 731, 741, 751, 761, 771, 781, 791, 801, 811, 821, 831, 841, 851, 861, 871, 881, 891, 901, 911, 921, 931, 941, 951, 961, 971, 981, 991, 1001, 1011, 1021, 1031, 1041, 1051, 1061, 1071, 1081, 1091, 1101, 1111, 1121, 1131, 1141, 1151, 1161, 1171, 1181, 1191, 1201, 1211, 1221, 1231, 1241, 1251, 1261, 1271, 1281, 1291, 1301, 1311, 1321, 1331, 1341, 1351, 1361, 1371, 1381, 1391, 1401, 1411, 1421, 1431, 1441, 1451, 1461, 1471, 1481, 1491, 1501, 1511, 1521, 1531, 1541, 1551, 1561, 1571, 1581, 1591, 1601, 1611, 1621, 1631, 1641, 1651, 1661, 1671, 1681, 1691, 1701, 1711, 1721, 1731, 1741, 1751, 1761, 1771, 1781, 1791, 1801, 1811, 1821, 1831, 1841, 1851, 1861, 1871, 1881, 1891, 1901, 1911, 1921, 1931, 1941, 1951, 1961, 1971, 1981, 1991, 2001, 2011, 2021, 2031, 2041, 2051, 2061, 2071, 2081, 2091, 2101, 2111, 2121, 2131, 2141, 2151, 2161, 2171, 2181, 2191, 2201, 2211, 2221, 2231, 2241, 2251, 2261, 2271, 2281, 2291, 2301, 2311, 2321, 2331, 2341, 2351, 2361, 2371, 2381, 2391, 2401, 2411, 2421, 2431, 2441, 2451, 2461, 2471, 2481, 2491, 2501, 2511, 2521, 2531, 2541, 2551, 2561, 2571, 2581, 2591, 2601, 2611, 2621, 2631, 2641, 2651, 2661, 2671, 2681, 2691, 2701, 2711, 2721, 2731, 2741, 2751, 2761, 2771, 2781, 2791, 2801, 2811, 2821, 2831, 2841, 2851, 2861, 2871, 2881, 2891, 2901, 2911, 2921, 2931, 2941, 2951, 2961, 2971, 2981, 2991, 3001, 3011, 3021, 3031, 3041, 3051, 3061, 3071, 3081, 3091, 3101, 3111, 3121, 3131, 3141, 3151, 3161, 3171, 3181, 3191, 3201, 3211, 3221, 3231, 3241, 3251, 3261, 3271]","1078","1920","[960, 960, 960, 960, 960, 960, 960, 960, 960, 960, 960, 960, 960, 960, 960, 960, 960, 960, 960, 960, 960, 960, 960, 960, 960, 960, 960, 960, 960, 960, 960, 960, 960, 960, 960, 960, 960, 960, 960, 960, 960, 960, 960, 960, 960, 960, 960, 960, 960, 960, 960, 960, 960, 960, 960, 960, 960, 960, 960, 960, 960, 960, 960, 960, 960, 960, 960, 960, 960, 960, 960, 960, 960, 960, 960, 960, 960, 960, 960, 960, 960, 960, 960, 960, 960, 960, 960, 960, 960, 960, 960, 960, 960, 960, 960, 960, 960, 960, 960, 960, 960, 960, 960, 960, 960, 960, 960, 960, 960, 960, 960, 960, 960, 960, 960, 960, 960, 960, 960, 961, 961, 961, 961, 962, 962, 962, 964, 965, 965, 965, 966, 966, 966, 966, 966, 966, 966, 967, 967, 968, 968, 972, 981, 985, 987, 989, 993, 994, 995, 995, 996, 997, 997, 997, 997, 997, 997, 999, 999, 1000, 1001, 1001, 1003, 1004, 1006, 1007, 1011, 1013, 1017, 1023, 1034, 1039, 1045, 1051, 1067, 1072, 1078, 1083, 1095, 1102, 1110, 1116, 1130, 1140, 1148, 1157, 1172, 1177, 1185, 1190, 1201, 1205, 1207, 1211, 1220, 1223, 1226, 1231, 1238, 1242, 1247, 1252, 1265, 1272, 1277, 1289, 1310, 1321, 1330, 1341, 1364, 1371, 1382, 1396, 1423, 1430, 1441, 1451, 1469, 1477, 1484, 1491, 1507, 1512, 1517, 1525, 1533, 1535, 1538, 1541, 1548, 1549, 1553, 1555, 1560, 1562, 1566, 1571, 1581, 1587, 1593, 1601, 1612, 1620, 1628, 1632, 1642, 1647, 1651, 1655, 1661, 1663, 1664, 1667, 1670, 1671, 1674, 1675, 1680, 1682, 1685, 1687, 1693, 1695, 1696, 1698, 1699, 1700, 1700, 1700, 1700, 1700, 1700, 1700, 1700, 1700, 1700, 1700, 1702, 1703, 1705, 1706, 1706, 1706, 1707, 1707, 1708, 1708, 1709, 1709, 1709, 1709, 1709, 1709, 1709, 1709, 1709, 1709, 1709, 1709, 1711, 1714, 1719, 1722, 1726, 1730, 1735, 1737, 1738, 1738, 1738, 1738, 1738, 1738, 1738, 1738, 1738, 1738, 1738, 1738, 1738, 1738, 1738, 1738, 1738, 1738, 1738]","[1010, 1010, 1010, 1010, 1010, 1010, 1010, 1010, 1010, 1010, 1010, 1010, 1010, 1010, 1010, 1010, 1010, 1010, 1010, 1010, 1010, 1010, 1010, 1010, 1010, 1010, 1010, 1010, 1010, 1010, 1010, 1010, 1010, 1010, 1010, 1010, 1010, 1010, 1010, 1010, 1010, 1010, 1010, 1010, 1010, 1010, 1010, 1010, 1010, 1010, 1010, 1010, 1010, 1010, 1010, 1010, 1010, 1010, 1010, 1010, 1010, 1010, 1010, 1010, 1010, 1010, 1010, 1010, 1010, 1010, 1010, 1010, 1010, 1010, 1010, 1010, 1010, 1010, 1010, 1010, 1010, 1010, 1010, 1010, 1010, 1010, 1010, 1010, 1010, 1010, 1010, 1010, 1010, 1010, 1010, 1010, 1010, 1010, 1010, 1009, 1009, 1009, 1009, 1009, 1009, 1009, 1009, 1009, 1009, 1008, 1008, 1008, 1008, 1008, 1008, 1007, 1007, 1007, 1007, 1006, 1006, 1006, 1006, 1005, 1005, 1005, 1004, 1003, 1003, 1003, 1002, 1002, 1002, 1002, 1002, 1002, 1002, 1001, 1001, 1001, 1001, 999, 993, 991, 989, 988, 986, 984, 983, 983, 982, 981, 980, 980, 978, 977, 977, 975, 974, 973, 971, 970, 967, 964, 961, 958, 950, 944, 937, 928, 909, 898, 888, 878, 856, 847, 837, 829, 809, 800, 789, 780, 756, 740, 730, 715, 692, 682, 667, 657, 633, 623, 614, 606, 588, 581, 573, 565, 553, 543, 534, 522, 500, 488, 477, 461, 432, 415, 399, 384, 353, 342, 328, 313, 283, 274, 262, 250, 234, 227, 221, 214, 201, 198, 194, 189, 184, 184, 181, 180, 174, 172, 171, 167, 162, 160, 155, 151, 144, 139, 135, 129, 124, 119, 115, 113, 108, 105, 104, 101, 98, 96, 95, 93, 90, 90, 88, 85, 81, 78, 77, 74, 69, 67, 66, 65, 63, 62, 62, 62, 62, 62, 62, 62, 62, 62, 62, 62, 61, 60, 60, 60, 59, 59, 59, 59, 58, 58, 58, 58, 58, 58, 58, 58, 58, 58, 58, 58, 58, 58, 59, 67, 80, 87, 93, 97, 100, 101, 101, 101, 101, 101, 101, 101, 101, 101, 101, 101, 101, 101, 101, 101, 101, 101, 101, 101, 101]"
"Trust","Teilnehmer A hat Ihnen 2 Punkte übermittelt.","Payback","0","undefined","4","0","1","60","1080","271","10","2","942","0","legacy","[11, 21, 31, 41, 51, 61, 71, 81, 91, 101, 111, 121, 131, 141, 151, 161, 171, 181, 191, 201, 211, 221, 231, 241, 251, 261, 271, 281, 291, 301, 311, 321, 331, 341, 351, 361, 371, 381, 391, 401, 411, 421, 431, 441, 451, 461, 471, 481, 491, 501, 511, 521, 531, 541, 551, 561, 571, 581, 591, 601, 611, 621, 631, 641, 651, 661, 671, 681, 691, 701, 711, 721, 731, 741, 751, 761, 771, 781, 791, 801, 811, 821, 831, 841, 851, 861, 871, 881, 891, 901, 911, 921, 931, 941]","1078","1920","[960, 960, 960, 960, 960, 960, 960, 960, 960, 960, 960, 960, 960, 960, 960, 960, 961, 958, 953, 949, 945, 940, 926, 917, 909, 898, 864, 843, 820, 795, 751, 726, 704, 683, 646, 624, 602, 577, 538, 521, 507, 489, 451, 432, 413, 389, 343, 321, 300, 278, 245, 231, 217, 205, 188, 186, 186, 186, 186, 186, 186, 186, 186, 186, 186, 186, 186, 187, 187, 187, 187, 187, 187, 187, 187, 187, 187, 186, 185, 185, 185, 185, 185, 185, 185, 185, 185, 185, 185, 185, 185, 185, 185, 185]","[1010, 1010, 1010, 1010, 1010, 1010, 1010, 1010, 1010, 1010, 1010, 1010, 1010, 1010, 1010, 1010, 1010, 1007, 1000, 995, 990, 985, 973, 967, 961, 952, 928, 912, 894, 873, 836, 812, 788, 767, 723, 694, 671, 642, 590, 565, 543, 520, 467, 441, 414, 382, 325, 301, 275, 252, 211, 196, 180, 165, 138, 131, 121, 114, 103, 99, 95, 90, 84, 79, 72, 66, 59, 55, 52, 48, 41, 38, 36, 35, 30, 28, 25, 22, 21, 20, 20, 20, 20, 20, 20, 20, 20, 20, 20, 20, 20, 20, 20, 20]"
"Trust","Teilnehmer A hat Ihnen 2 Punkte übermittelt.","Payback","0","undefined","5","0","1","60","1080","831","10","2","1390","0","legacy","[11, 21, 31, 41, 51, 61, 71, 81, 91, 101, 111, 121, 131, 141, 151, 161, 171, 181, 191, 201, 211, 221, 231, 241, 251, 261, 271, 281, 291, 301, 311, 321, 331, 341, 351, 361, 371, 381, 391, 401, 411, 421, 431, 441, 451, 461, 471, 481, 491, 501, 511, 521, 531, 541, 551, 561, 571, 581, 591, 601, 611, 621, 631, 641, 651, 661, 671, 681, 691, 701, 711, 721, 731, 741, 751, 761, 771, 781, 791, 801, 811, 821, 831, 841, 851, 861, 871, 881, 891, 901, 911, 921, 931, 941, 951, 961, 971, 981, 991, 1001, 1011, 1021, 1031, 1041, 1051, 1061, 1071, 1081, 1091, 1101, 1111, 1121, 1131, 1141, 1151, 1161, 1171, 1181, 1191, 1201, 1211, 1221, 1231, 1241, 1251, 1261, 1271, 1281, 1291, 1301, 1311, 1321, 1331, 1341, 1351, 1361, 1371, 1381]","1078","1920","[960, 960, 960, 960, 960, 960, 960, 960, 960, 960, 960, 960, 960, 960, 960, 960, 960, 960, 960, 960, 960, 960, 960, 960, 960, 960, 960, 960, 960, 960, 960, 960, 960, 960, 960, 960, 960, 960, 960, 960, 960, 960, 960, 960, 960, 960, 960, 960, 960, 960, 960, 960, 960, 960, 960, 960, 960, 960, 960, 960, 960, 960, 960, 960, 960, 960, 960, 960, 960, 960, 960, 960, 960, 960, 960, 960, 960, 960, 959, 951, 942, 927, 880, 845, 808, 773, 708, 677, 642, 614, 565, 539, 511, 482, 437, 422, 404, 392, 375, 368, 363, 354, 339, 332, 329, 324, 315, 312, 310, 306, 298, 293, 285, 278, 269, 264, 260, 254, 241, 235, 228, 222, 210, 204, 198, 191, 182, 180, 177, 177, 177, 177, 177, 177, 177, 177, 177, 177]","[1010, 1010, 1010, 1010, 1010, 1010, 1010, 1010, 1010, 1010, 1010, 1010, 1010, 1010, 1010, 1010, 1010, 1010, 1010, 1010, 1010, 1010, 1010, 1010, 1010, 1010, 1010, 1010, 1010, 1010, 1010, 1010, 1010, 1010, 1010, 1010, 1010, 1010, 1010, 1010, 1010, 1010, 1010, 1010, 1010, 1010, 1010, 1010, 1010, 1010, 1010, 1010, 1010, 1010, 1010, 1010, 1010, 1010, 1010, 1010, 1010, 1010, 1010, 1010, 1010, 1010, 1010, 1010, 1010, 1010, 1010, 1010, 1010, 1010, 1010, 1010, 1010, 1010, 1009, 1001, 989, 972, 922, 886, 853, 822, 755, 723, 688, 654, 596, 562, 530, 496, 444, 426, 403, 388, 364, 354, 349, 336, 317, 306, 299, 292, 277, 271, 266, 259, 245, 236, 225, 215, 196, 185, 173, 162, 137, 127, 115, 107, 86, 76, 66, 56, 44, 39, 35, 34, 33, 33, 33, 33, 33, 33, 33, 33]"
"Promise","Wie oft werden Sie die Hälfte zurückgeben?","Promise","1","undefined","5","0","2","60","1080","581","10","1","1579","0","legacy","[11, 21, 31, 41, 51, 61, 71, 81, 91, 101, 111, 121, 131, 141, 151, 161, 171, 181, 191, 201, 211, 221, 231, 241, 251, 261, 271, 281, 291, 301, 311, 321, 331, 341, 351, 361, 371, 381, 391, 401, 411, 421, 431, 441, 451, 461, 471, 481, 491, 501, 511, 521, 531, 541, 551, 561, 571, 581, 591, 601, 611, 621, 631, 641, 651, 661, 671, 681, 691, 701, 711, 721, 731, 741, 751, 761, 771, 781, 791, 801, 811, 821, 831, 841, 851, 861, 871, 881, 891, 901, 911, 921, 931, 941, 951, 961, 971, 981, 991, 1001, 1011, 1021, 1031, 1041, 1051, 1061, 1071, 1081, 1091, 1101, 1111, 1121, 1131, 1141, 1151, 1161, 1171, 1181, 1191, 1201, 1211, 1221, 1231, 1241, 1251, 1261, 1271, 1281, 1291, 1301, 1311, 1321, 1331, 1341, 1351, 1361, 1371, 1381, 1391, 1401, 1411, 1421, 1431, 1441, 1451, 1461, 1471, 1481, 1491, 1501, 1511, 1521, 1531, 1541, 1551, 1561, 1571]","1078","1920","[960, 960, 960, 960, 960, 960, 960, 960, 960, 960, 960, 960, 960, 960, 960, 960, 960, 960, 960, 960, 960, 960, 960, 960, 960, 960, 960, 960, 960, 960, 960, 960, 960, 960, 960, 960, 960, 960, 960, 960, 960, 960, 960, 961, 963, 968, 970, 973, 976, 982, 985, 988, 992, 1001, 1004, 1011, 1020, 1042, 1052, 1062, 1071, 1100, 1118, 1133, 1154, 1199, 1223, 1253, 1279, 1333, 1361, 1389, 1415, 1472, 1496, 1519, 1541, 1577, 1591, 1603, 1617, 1636, 1644, 1653, 1659, 1670, 1675, 1679, 1683, 1688, 1688, 1689, 1690, 1694, 1695, 1695, 1696, 1696, 1696, 1696, 1696, 1696, 1696, 1696, 1696, 1696, 1696, 1696, 1696, 1696, 1696, 1696, 1696, 1696, 1696, 1696, 1696, 1696, 1696, 1696, 1696, 1696, 1696, 1696, 1696, 1696, 1696, 1696, 1696, 1696, 1696, 1696, 1696, 1696, 1696, 1696, 1696, 1696, 1696, 1696, 1696, 1696, 1696, 1696, 1696, 1696, 1696, 1696, 1696, 1696, 1696, 1696, 1696, 1696, 1696, 1696, 1696]","[1010, 1010, 1010, 1010, 1010, 1010, 1010, 1010, 1010, 1010, 1010, 1010, 1010, 1010, 1010, 1010, 1010, 1010, 1010, 1010, 1010, 1010, 1010, 1010, 1010, 1010, 1010, 1010, 1010, 1010, 1010, 1010, 1010, 1010, 1010, 1010, 1010, 1010, 1010, 1010, 1010, 1010, 1010, 1010, 1010, 1002, 998, 993, 990, 983, 979, 974, 969, 958, 953, 946, 940, 919, 909, 898, 886, 853, 830, 813, 784, 722, 694, 659, 628, 567, 533, 501, 469, 403, 372, 341, 313, 257, 238, 218, 196, 161, 148, 134, 123, 103, 95, 88, 82, 75, 73, 73, 71, 68, 68, 68, 66, 66, 66, 66, 66, 66, 66, 66, 66, 66, 66, 66, 66, 66, 66, 66, 66, 66, 66, 66, 66, 66, 66, 66, 66, 66, 66, 66, 66, 66, 66, 66, 66, 66, 66, 66, 66, 66, 66, 66, 66, 66, 66, 66, 66, 66, 66, 66, 66, 66, 66, 66, 66, 66, 66, 66, 66, 66, 66, 66, 66]"
"Trust","Teilnehmer A hat Ihnen 2 Punkte übermittelt.","Payback","1","undefined","6","0","2","60","1080","301","5","1","1014","0","legacy","[11, 21, 31, 41, 51, 61, 71, 81, 91, 101, 111, 121, 131, 141, 151, 161, 171, 181, 191, 201, 211, 221, 231, 241, 251, 261, 271, 281, 291, 301, 311, 321, 331, 341, 351, 361, 371, 381, 391, 401, 411, 421, 431, 441, 451, 461, 471, 481, 491, 501, 511, 521, 531, 541, 551, 561, 571, 581, 591, 601, 611, 621, 631, 641, 651, 661, 671, 681, 691, 701, 711, 721, 731, 741, 751, 761, 771, 781, 791, 801, 811, 821, 831, 841, 851, 861, 871, 881, 891, 901, 911, 921, 931, 941, 951, 961, 971, 981, 991, 1001, 1011]","1078","1920","[960, 960, 960, 960, 960, 960, 960, 960, 960, 960, 960, 960, 960, 960, 960, 960, 960, 960, 960, 960, 960, 960, 960, 960, 961, 963, 973, 980, 987, 1008, 1055, 1082, 1111, 1139, 1206, 1247, 1284, 1320, 1394, 1425, 1455, 1481, 1522, 1535, 1552, 1562, 1581, 1590, 1596, 1601, 1612, 1616, 1620, 1621, 1626, 1630, 1632, 1634, 1638, 1642, 1643, 1646, 1650, 1654, 1657, 1661, 1666, 1669, 1673, 1675, 1684, 1686, 1691, 1695, 1701, 1704, 1706, 1709, 1714, 1716, 1717, 1719, 1723, 1725, 1726, 1729, 1731, 1734, 1735, 1736, 1738, 1738, 1739, 1740, 1741, 1741, 1741, 1741, 1741, 1741, 1741]","[1010, 1010, 1010, 1010, 1010, 1010, 1010, 1010, 1010, 1010, 1010, 1010, 1010, 1010, 1010, 1010, 1010, 1010, 1010, 1010, 1010, 1010, 1010, 1009, 1005, 999, 981, 970, 957, 931, 871, 842, 808, 776, 699, 658, 623, 585, 509, 481, 454, 431, 387, 373, 355, 346, 325, 316, 310, 305, 292, 287, 283, 280, 272, 266, 262, 259, 254, 251, 248, 244, 237, 232, 228, 223, 213, 209, 206, 201, 189, 185, 179, 173, 162, 156, 153, 148, 140, 135, 133, 129, 124, 119, 117, 112, 108, 103, 102, 99, 95, 94, 92, 92, 91, 89, 89, 89, 89, 89, 89]"
"NoTrust","Teilnehmer A hat Ihnen keine 2 Punkte übermittelt.","Payback","1","undefined","7","0","2","60","1080","301","0","1","1014","0","legacy","[11, 21, 31, 41, 51, 61, 71, 81, 91, 101, 111, 121, 131, 141, 151, 161, 171, 181, 191, 201, 211, 221, 231, 241, 251, 261, 271, 281, 291, 301, 311, 321, 331, 341, 351, 361, 371, 381, 391, 401, 411, 421, 431, 441, 451, 461, 471, 481, 491, 501, 511, 521, 531, 541, 551, 561, 571, 581, 591, 601, 611, 621, 631, 641, 651, 661, 671, 681, 691, 701, 711, 721, 731, 741, 751, 761, 771, 781, 791, 801, 811, 821, 831, 841, 851, 861, 871, 881, 891, 901, 911, 921, 931, 941, 951, 961, 971, 981, 991, 1001, 1011]","1078","1920","[960, 960, 960, 960, 960, 960, 960, 960, 960, 960, 960, 960, 960, 960, 960, 960, 960, 960, 960, 960, 960, 960, 960, 960, 961, 963, 973, 980, 987, 1008, 1055, 1082, 1111, 1139, 1206, 1247, 1284, 1320, 1394, 1425, 1455, 1481, 1522, 1535, 1552, 1562, 1581, 1590, 1596, 1601, 1612, 1616, 1620, 1621, 1626, 1630, 1632, 1634, 1638, 1642, 1643, 1646, 1650, 1654, 1657, 1661, 1666, 1669, 1673, 1675, 1684, 1686, 1691, 1695, 1701, 1704, 1706, 1709, 1714, 1716, 1717, 1719, 1723, 1725, 1726, 1729, 1731, 1734, 1735, 1736, 1738, 1738, 1739, 1740, 1741, 1741, 1741, 1741, 1741, 1741, 1741]","[1010, 1010, 1010, 1010, 1010, 1010, 1010, 1010, 1010, 1010, 1010, 1010, 1010, 1010, 1010, 1010, 1010, 1010, 1010, 1010, 1010, 1010, 1010, 1009, 1005, 999, 981, 970, 957, 931, 871, 842, 808, 776, 699, 658, 623, 585, 509, 481, 454, 431, 387, 373, 355, 346, 325, 316, 310, 305, 292, 287, 283, 280, 272, 266, 262, 259, 254, 251, 248, 244, 237, 232, 228, 223, 213, 209, 206, 201, 189, 185, 179, 173, 162, 156, 153, 148, 140, 135, 133, 129, 124, 119, 117, 112, 108, 103, 102, 99, 95, 94, 92, 92, 91, 89, 89, 89, 89, 89, 89]"
"Trust","Teilnehmer A hat Ihnen 2 Punkte übermittelt.","Payback","0","undefined","8","0","2","60","1080","341","10","2","1230","0","legacy","[11, 21, 31, 41, 51, 61, 71, 81, 91, 101, 111, 121, 131, 141, 151, 161, 171, 181, 191, 201, 211, 221, 231, 241, 251, 261, 271, 281, 291, 301, 311, 321, 331, 341, 351, 361, 371, 381, 391, 401, 411, 421, 431, 441, 451, 461, 471, 481, 491, 501, 511, 521, 531, 541, 551, 561, 571, 581, 591, 601, 611, 621, 631, 641, 651, 661, 671, 681, 691, 701, 711, 721, 731, 741, 751, 761, 771, 781, 791, 801, 811, 821, 831, 841, 851, 861, 871, 881, 891, 901, 911, 921, 931, 941, 951, 961, 971, 981, 991, 1001, 1011, 1021, 1031, 1041, 1051, 1061, 1071, 1081, 1091, 1101, 1111, 1121, 1131, 1141, 1151, 1161, 1171, 1181, 1191, 1201, 1211, 1221]","1078","1920","[960, 960, 960, 960, 960, 960, 960, 960, 960, 960, 960, 960, 960, 960, 960, 960, 960, 960, 960, 960, 960, 960, 960, 960, 960, 960, 960, 960, 960, 957, 941, 924, 898, 869, 804, 761, 727, 690, 624, 586, 558, 530, 476, 458, 446, 436, 422, 416, 413, 410, 406, 403, 399, 396, 390, 387, 381, 379, 371, 366, 363, 357, 349, 343, 339, 334, 328, 325, 321, 320, 312, 310, 304, 298, 288, 285, 280, 275, 265, 260, 256, 250, 242, 238, 233, 230, 223, 221, 220, 217, 217, 216, 216, 215, 215, 214, 214, 214, 213, 213, 213, 211, 210, 208, 207, 206, 203, 202, 201, 200, 199, 198, 198, 197, 197, 197, 197, 197, 197, 197, 197, 197]","[1010, 1010, 1010, 1010, 1010, 1010, 1010, 1010, 1010, 1010, 1010, 1010, 1010, 1010, 1010, 1010, 1010, 1010, 1010, 1010, 1010, 1010, 1010, 1010, 1010, 1010, 1010, 1010, 1010, 1010, 1000, 985, 962, 937, 885, 850, 820, 788, 732, 698, 675, 654, 614, 599, 589, 582, 567, 561, 557, 553, 546, 543, 537, 534, 524, 519, 513, 509, 499, 492, 486, 478, 462, 453, 443, 433, 414, 403, 391, 382, 360, 352, 341, 328, 305, 294, 284, 271, 249, 239, 228, 215, 195, 185, 175, 168, 154, 151, 148, 143, 139, 138, 137, 136, 136, 134, 134, 134, 133, 131, 130, 128, 124, 122, 119, 116, 110, 105, 102, 101, 96, 95, 93, 91, 91, 91, 91, 91, 91, 91, 91, 91]"
"Promise","Wie oft werden Sie die Hälfte zurückgeben?","Promise","0","undefined","8","0","3","60","1080","401","10","2","1392","0","legacy","[11, 21, 31, 41, 51, 61, 71, 81, 91, 101, 111, 121, 131, 141, 151, 161, 171, 181, 191, 201, 211, 221, 231, 241, 251, 261, 271, 281, 291, 301, 311, 321, 331, 341, 351, 361, 371, 381, 391, 401, 411, 421, 431, 441, 451, 461, 471, 481, 491, 501, 511, 521, 531, 541, 551, 561, 571, 581, 591, 601, 611, 621, 631, 641, 651, 661, 671, 681, 691, 701, 711, 721, 731, 741, 751, 761, 771, 781, 791, 801, 811, 821, 831, 841, 851, 861, 871, 881, 891, 901, 911, 921, 931, 941, 951, 961, 971, 981, 991, 1001, 1011, 1021, 1031, 1041, 1051, 1061, 1071, 1081, 1091, 1101, 1111, 1121, 1131, 1141, 1151, 1161, 1171, 1181, 1191, 1201, 1211, 1221, 1231, 1241, 1251, 1261, 1271, 1281, 1291, 1301, 1311, 1321, 1331, 1341, 1351, 1361, 1371, 1381, 1391]","1078","1920","[960, 960, 960, 960, 960, 960, 960, 960, 960, 960, 960, 960, 960, 960, 960, 960, 960, 960, 960, 960, 960, 960, 960, 960, 960, 960, 960, 960, 960, 960, 960, 956, 955, 951, 947, 929, 914, 894, 869, 820, 790, 763, 730, 677, 657, 639, 622, 600, 592, 584, 579, 566, 559, 552, 548, 537, 533, 530, 527, 520, 516, 512, 506, 494, 487, 481, 476, 467, 461, 455, 450, 438, 433, 425, 421, 409, 403, 399, 393, 382, 377, 370, 364, 349, 343, 338, 332, 322, 318, 315, 313, 308, 306, 303, 302, 295, 295, 293, 292, 290, 290, 287, 286, 283, 282, 278, 276, 268, 264, 259, 252, 241, 238, 234, 230, 223, 219, 216, 214, 208, 205, 203, 201, 197, 197, 196, 196, 196, 196, 196, 196, 196, 196, 196, 196, 196, 196, 196, 196]","[1010, 1010, 1010, 1010, 1010, 1010, 1010, 1010, 1010, 1010, 1010, 1010, 1010, 1010, 1010, 1010, 1010, 1010, 1010, 1010, 1010, 1010, 1010, 1010, 1010, 1010, 1010, 1010, 1010, 1010, 1010, 1009, 1008, 1006, 1004, 993, 983, 969, 955, 925, 909, 890, 872, 836, 821, 808, 793, 773, 764, 755, 747, 728, 719, 709, 703, 688, 680, 676, 671, 656, 650, 643, 636, 619, 608, 600, 591, 573, 563, 554, 544, 521, 511, 496, 484, 460, 445, 434, 419, 397, 384, 371, 361, 332, 320, 310, 300, 282, 275, 269, 261, 252, 247, 244, 240, 232, 231, 229, 226, 224, 223, 221, 218, 215, 213, 211, 208, 200, 195, 190, 181, 167, 163, 156, 151, 139, 133, 127, 123, 114, 110, 105, 103, 99, 98, 97, 97, 97, 97, 97, 97, 97, 97, 97, 97, 97, 97, 97, 97]"
"Trust","Teilnehmer A hat Ihnen 2 Punkte übermittelt.","Payback","0","undefined","9","0","3","60","1080","371","10","2","1223","0","legacy","[11, 21, 31, 41, 51, 61, 71, 81, 91, 101, 111, 121, 131, 141, 151, 161, 171, 181, 191, 201, 211, 221, 231, 241, 251, 261, 271, 281, 291, 301, 311, 321, 331, 341, 351, 361, 371, 381, 391, 401, 411, 421, 431, 441, 451, 461, 471, 481, 491, 501, 511, 521, 531, 541, 551, 561, 571, 581, 591, 601, 611, 621, 631, 641, 651, 661, 671, 681, 691, 701, 711, 721, 731, 741, 751, 761, 771, 781, 791, 801, 811, 821, 831, 841, 851, 861, 871, 881, 891, 901, 911, 921, 931, 941, 951, 961, 971, 981, 991, 1001, 1011, 1021, 1031, 1041, 1051, 1061, 1071, 1081, 1091, 1101, 1111, 1121, 1131, 1141, 1151, 1161, 1171, 1181, 1191, 1201, 1211, 1221]","1078","1920","[960, 960, 960, 960, 960, 960, 960, 960, 960, 960, 960, 960, 960, 960, 960, 960, 960, 960, 960, 960, 960, 960, 960, 960, 960, 960, 960, 960, 960, 960, 960, 956, 950, 941, 927, 877, 847, 816, 785, 722, 693, 669, 648, 606, 592, 578, 569, 551, 546, 538, 533, 521, 519, 514, 510, 503, 497, 490, 480, 465, 457, 447, 439, 422, 416, 410, 404, 387, 378, 371, 362, 347, 341, 337, 332, 327, 325, 323, 321, 316, 315, 312, 311, 311, 309, 309, 309, 309, 309, 309, 309, 308, 307, 306, 305, 296, 290, 283, 274, 258, 249, 239, 232, 218, 211, 206, 198, 188, 186, 182, 180, 178, 178, 178, 178, 178, 178, 178, 178, 178, 178, 178]","[1010, 1010, 1010, 1010, 1010, 1010, 1010, 1010, 1010, 1010, 1010, 1010, 1010, 1010, 1010, 1010, 1010, 1010, 1010, 1010, 1010, 1010, 1010, 1010, 1010, 1010, 1010, 1010, 1010, 1010, 1010, 1008, 1004, 996, 984, 948, 921, 897, 873, 819, 794, 772, 754, 714, 698, 683, 674, 651, 644, 632, 625, 606, 601, 594, 585, 570, 563, 550, 538, 515, 507, 494, 484, 461, 448, 436, 422, 386, 365, 347, 327, 291, 278, 267, 257, 241, 234, 225, 219, 207, 204, 200, 197, 194, 192, 192, 192, 191, 191, 191, 190, 190, 189, 189, 187, 180, 174, 168, 160, 147, 137, 128, 119, 103, 94, 88, 83, 73, 69, 64, 63, 61, 61, 61, 61, 61, 61, 61, 61, 61, 61, 61]"
"Trust","Teilnehmer A hat Ihnen 2 Punkte übermittelt.","Payback","1","undefined","10","0","3","60","1080","331","5","1","1015","0","legacy","[11, 21, 31, 41, 51, 61, 71, 81, 91, 101, 111, 121, 131, 141, 151, 161, 171, 181, 191, 201, 211, 221, 231, 241, 251, 261, 271, 281, 291, 301, 311, 321, 331, 341, 351, 361, 371, 381, 391, 401, 411, 421, 431, 441, 451, 461, 471, 481, 491, 501, 511, 521, 531, 541, 551, 561, 571, 581, 591, 601, 611, 621, 631, 641, 651, 661, 671, 681, 691, 701, 711, 721, 731, 741, 751, 761, 771, 781, 791, 801, 811, 821, 831, 841, 851, 861, 871, 881, 891, 901, 911, 921, 931, 941, 951, 961, 971, 981, 991, 1001, 1011]","1078","1920","[960, 960, 960, 960, 960, 960, 960, 960, 960, 960, 960, 960, 960, 960, 960, 960, 960, 960, 960, 960, 960, 960, 960, 960, 960, 961, 971, 977, 986, 997, 1025, 1041, 1062, 1084, 1131, 1153, 1181, 1207, 1255, 1280, 1298, 1321, 1359, 1374, 1391, 1407, 1429, 1441, 1453, 1464, 1479, 1486, 1496, 1504, 1520, 1530, 1538, 1545, 1561, 1568, 1577, 1588, 1602, 1609, 1617, 1624, 1637, 1646, 1656, 1678, 1702, 1708, 1712, 1714, 1718, 1727, 1728, 1729, 1729, 1729, 1729, 1729, 1729, 1730, 1732, 1733, 1734, 1734, 1736, 1737, 1737, 1737, 1737, 1737, 1738, 1739, 1740, 1740, 1740, 1740, 1740]","[1010, 1010, 1010, 1010, 1010, 1010, 1010, 1010, 1010, 1010, 1010, 1010, 1010, 1010, 1010, 1010, 1010, 1010, 1010, 1010, 1010, 1010, 1010, 1010, 1010, 1010, 1001, 996, 988, 979, 959, 948, 932, 918, 889, 873, 851, 833, 798, 781, 765, 748, 718, 704, 691, 677, 658, 647, 638, 628, 608, 598, 584, 573, 550, 536, 520, 507, 480, 468, 453, 436, 412, 399, 383, 368, 338, 317, 292, 261, 227, 217, 208, 199, 189, 169, 161, 153, 143, 129, 124, 120, 115, 109, 104, 101, 98, 94, 91, 90, 90, 86, 86, 85, 84, 81, 80, 80, 80, 80, 80]"
"Trust","Teilnehmer A hat Ihnen 2 Punkte übermittelt.","Payback","0","undefined","11","0","3","60","1080","341","10","2","1068","0","legacy","[11, 21, 31, 41, 51, 61, 71, 81, 91, 101, 111, 121, 131, 141, 151, 161, 171, 181, 191, 201, 211, 221, 231, 241, 251, 261, 271, 281, 291, 301, 311, 321, 331, 341, 351, 361, 371, 381, 391, 401, 411, 421, 431, 441, 451, 461, 471, 481, 491, 501, 511, 521, 531, 541, 551, 561, 571, 581, 591, 601, 611, 621, 631, 641, 651, 661, 671, 681, 691, 701, 711, 721, 731, 741, 751, 761, 771, 781, 791, 801, 811, 821, 831, 841, 851, 861, 871, 881, 891, 901, 911, 921, 931, 941, 951, 961, 971, 981, 991, 1001, 1011, 1021, 1031, 1041, 1051, 1061]","1078","1920","[960, 960, 960, 960, 960, 960, 960, 960, 960, 960, 960, 960, 960, 960, 960, 960, 960, 960, 960, 960, 960, 960, 960, 960, 960, 960, 959, 954, 947, 933, 920, 898, 875, 822, 795, 770, 742, 682, 657, 632, 609, 576, 561, 548, 541, 525, 520, 518, 514, 508, 505, 500, 497, 485, 476, 465, 447, 408, 386, 363, 340, 296, 278, 256, 240, 210, 202, 191, 184, 177, 174, 172, 169, 167, 167, 167, 166, 166, 166, 166, 166, 166, 166, 166, 166, 166, 166, 166, 166, 166, 166, 166, 166, 166, 166, 166, 166, 166, 166, 166, 166, 166, 166, 166, 166, 166]","[1010, 1010, 1010, 1010, 1010, 1010, 1010, 1010, 1010, 1010, 1010, 1010, 1010, 1010, 1010, 1010, 1010, 1010, 1010, 1010, 1010, 1010, 1010, 1010, 1010, 1011, 1011, 1009, 1004, 993, 985, 971, 954, 920, 905, 886, 869, 832, 817, 800, 784, 763, 749, 738, 730, 716, 709, 705, 697, 681, 675, 666, 657, 633, 619, 600, 572, 519, 488, 459, 426, 362, 336, 313, 290, 250, 236, 222, 213, 197, 191, 184, 179, 170, 167, 165, 163, 159, 157, 155, 152, 148, 145, 143, 142, 140, 139, 138, 138, 136, 135, 134, 132, 130, 129, 128, 127, 123, 122, 122, 122, 122, 122, 122, 122, 122]"
"Promise","Wie oft werden Sie die Hälfte zurückgeben?","Promise","0","undefined","11","0","4","60","1080","441","10","2","1272","0","legacy","[11, 21, 31, 41, 51, 61, 71, 81, 91, 101, 111, 121, 131, 141, 151, 161, 171, 181, 191, 201, 211, 221, 231, 241, 251, 261, 271, 281, 291, 301, 311, 321, 331, 341, 351, 361, 371, 381, 391, 401, 411, 421, 431, 441, 451, 461, 471, 481, 491, 501, 511, 521, 531, 541, 551, 561, 571, 581, 591, 601, 611, 621, 631, 641, 651, 661, 671, 681, 691, 701, 711, 721, 731, 741, 751, 761, 771, 781, 791, 801, 811, 821, 831, 841, 851, 861, 871, 881, 891, 901, 911, 921, 931, 941, 951, 961, 971, 981, 991, 1001, 1011, 1021, 1031, 1041, 1051, 1061, 1071, 1081, 1091, 1101, 1111, 1121, 1131, 1141, 1151, 1161, 1171, 1181, 1191, 1201, 1211, 1221, 1231, 1241, 1251, 1261, 1271]","1078","1920","[960, 960, 960, 960, 960, 960, 960, 960, 960, 960, 960, 960, 960, 960, 960, 960, 960, 960, 960, 960, 960, 960, 960, 960, 960, 960, 960, 960, 960, 960, 960, 960, 960, 960, 960, 960, 959, 956, 951, 940, 933, 926, 916, 877, 850, 829, 800, 750, 732, 708, 685, 638, 617, 586, 562, 519, 508, 502, 495, 483, 477, 471, 464, 451, 442, 438, 429, 417, 412, 409, 405, 398, 392, 389, 384, 375, 371, 369, 368, 367, 366, 364, 363, 358, 354, 350, 347, 341, 336, 332, 328, 318, 313, 308, 303, 287, 278, 268, 258, 240, 230, 223, 217, 207, 206, 205, 203, 202, 200, 200, 200, 200, 200, 200, 200, 200, 200, 200, 200, 200, 200, 200, 200, 200, 200, 200, 200]","[1010, 1010, 1010, 1010, 1010, 1010, 1010, 1010, 1010, 1010, 1010, 1010, 1010, 1010, 1010, 1010, 1010, 1010, 1010, 1010, 1010, 1010, 1010, 1010, 1010, 1010, 1010, 1010, 1010, 1010, 1010, 1010, 1010, 1010, 1010, 1010, 1010, 1009, 1005, 997, 991, 983, 973, 927, 891, 869, 844, 799, 784, 764, 744, 704, 685, 659, 637, 594, 577, 567, 555, 532, 521, 505, 489, 456, 439, 428, 409, 382, 369, 359, 348, 328, 317, 308, 298, 282, 275, 271, 269, 264, 261, 257, 254, 245, 240, 233, 229, 222, 217, 213, 208, 198, 194, 190, 187, 175, 169, 161, 155, 144, 140, 135, 132, 126, 124, 124, 122, 121, 119, 119, 119, 119, 119, 119, 119, 119, 119, 119, 119, 119, 119, 119, 119, 119, 119, 119, 119]"
"Trust","Teilnehmer A hat Ihnen 2 Punkte übermittelt.","Payback","1","undefined","12","0","4","60","1080","261","5","1","1150","0","legacy","[11, 21, 31, 41, 51, 61, 71, 81, 91, 101, 111, 121, 131, 141, 151, 161, 171, 181, 191, 201, 211, 221, 231, 241, 251, 261, 271, 281, 291, 301, 311, 321, 331, 341, 351, 361, 371, 381, 391, 401, 411, 421, 431, 441, 451, 461, 471, 481, 491, 501, 511, 521, 531, 541, 551, 561, 571, 581, 591, 601, 611, 621, 631, 641, 651, 661, 671, 681, 691, 701, 711, 721, 731, 741, 751, 761, 771, 781, 791, 801, 811, 821, 831, 841, 851, 861, 871, 881, 891, 901, 911, 921, 931, 941, 951, 961, 971, 981, 991, 1001, 1011, 1021, 1031, 1041, 1051, 1061, 1071, 1081, 1091, 1101, 1111, 1121, 1131, 1141]","1078","1920","[960, 960, 960, 960, 960, 960, 960, 960, 960, 960, 960, 960, 960, 960, 960, 960, 960, 960, 960, 961, 963, 974, 1012, 1029, 1058, 1080, 1134, 1162, 1192, 1233, 1300, 1330, 1366, 1391, 1449, 1467, 1486, 1501, 1526, 1538, 1550, 1559, 1578, 1586, 1595, 1602, 1620, 1626, 1636, 1644, 1662, 1670, 1679, 1690, 1708, 1714, 1725, 1731, 1745, 1747, 1751, 1756, 1763, 1764, 1765, 1768, 1770, 1771, 1773, 1774, 1776, 1779, 1779, 1780, 1780, 1780, 1780, 1780, 1780, 1780, 1780, 1780, 1780, 1780, 1780, 1780, 1780, 1780, 1780, 1780, 1780, 1780, 1780, 1780, 1780, 1780, 1780, 1780, 1780, 1780, 1780, 1780, 1780, 1780, 1780, 1780, 1780, 1780, 1780, 1780, 1780, 1780, 1780, 1780]","[1010, 1010, 1010, 1010, 1010, 1010, 1010, 1010, 1010, 1010, 1010, 1010, 1010, 1010, 1010, 1010, 1010, 1010, 1010, 1011, 1011, 1003, 978, 967, 951, 939, 908, 889, 873, 848, 804, 784, 761, 744, 706, 691, 679, 667, 647, 636, 628, 619, 598, 588, 578, 568, 546, 534, 522, 511, 486, 472, 459, 442, 410, 395, 373, 356, 323, 309, 297, 281, 257, 246, 235, 224, 204, 196, 188, 181, 165, 155, 148, 141, 132, 126, 122, 119, 114, 113, 112, 112, 112, 112, 112, 112, 112, 112, 112, 112, 112, 112, 112, 112, 112, 112, 112, 112, 112, 112, 112, 112, 112, 112, 112, 112, 112, 112, 112, 112, 112, 112, 112, 112]"
"Trust","Teilnehmer A hat Ihnen 2 Punkte übermittelt.","Payback","1","undefined","13","0","4","60","1080","291","5","1","1365","0","legacy","[11, 21, 31, 41, 51, 61, 71, 81, 91, 101, 111, 121, 131, 141, 151, 161, 171, 181, 191, 201, 211, 221, 231, 241, 251, 261, 271, 281, 291, 301, 311, 321, 331, 341, 351, 361, 371, 381, 391, 401, 411, 421, 431, 441, 451, 461, 471, 481, 491, 501, 511, 521, 531, 541, 551, 561, 571, 581, 591, 601, 611, 621, 631, 641, 651, 661, 671, 681, 691, 701, 711, 721, 731, 741, 751, 761, 771, 781, 791, 801, 811, 821, 831, 841, 851, 861, 871, 881, 891, 901, 911, 921, 931, 941, 951, 961, 971, 981, 991, 1001, 1011, 1021, 1031, 1041, 1051, 1061, 1071, 1081, 1091, 1101, 1111, 1121, 1131, 1141, 1151, 1161, 1171, 1181, 1191, 1201, 1211, 1221, 1231, 1241, 1251, 1261, 1271, 1281, 1291, 1301, 1311, 1321, 1331, 1341, 1351, 1361]","1078","1920","[960, 960, 960, 960, 960, 960, 960, 960, 960, 960, 960, 960, 960, 960, 960, 960, 960, 960, 960, 960, 960, 960, 961, 964, 975, 988, 1036, 1071, 1108, 1144, 1204, 1232, 1260, 1282, 1335, 1354, 1377, 1395, 1429, 1443, 1459, 1471, 1496, 1512, 1528, 1545, 1577, 1589, 1600, 1612, 1636, 1646, 1659, 1667, 1689, 1700, 1708, 1716, 1736, 1744, 1750, 1757, 1766, 1769, 1771, 1772, 1774, 1774, 1774, 1774, 1774, 1774, 1774, 1774, 1774, 1774, 1775, 1776, 1777, 1778, 1778, 1778, 1778, 1778, 1778, 1778, 1778, 1778, 1778, 1778, 1778, 1778, 1778, 1778, 1778, 1778, 1778, 1778, 1778, 1778, 1778, 1778, 1778, 1778, 1778, 1778, 1778, 1778, 1778, 1778, 1778, 1778, 1778, 1778, 1778, 1778, 1778, 1778, 1778, 1778, 1778, 1778, 1778, 1778, 1778, 1778, 1778, 1778, 1778, 1778, 1778, 1778, 1778, 1778, 1778, 1778]","[1010, 1010, 1010, 1010, 1010, 1010, 1010, 1010, 1010, 1010, 1010, 1010, 1010, 1010, 1010, 1010, 1010, 1010, 1010, 1010, 1010, 1010, 1010, 1010, 1006, 999, 971, 956, 938, 917, 882, 864, 845, 829, 784, 763, 736, 713, 668, 648, 626, 611, 574, 552, 529, 504, 459, 440, 418, 397, 356, 337, 315, 297, 257, 238, 224, 208, 180, 168, 160, 151, 138, 132, 131, 129, 127, 126, 126, 126, 126, 126, 126, 126, 126, 126, 125, 124, 121, 120, 120, 118, 118, 118, 118, 118, 118, 118, 118, 118, 118, 118, 118, 118, 118, 118, 118, 118, 118, 118, 118, 118, 118, 118, 118, 118, 118, 118, 118, 118, 118, 118, 118, 118, 118, 118, 118, 118, 118, 118, 118, 118, 118, 118, 118, 118, 118, 118, 118, 118, 118, 118, 118, 118, 118, 118]"
"Trust","Teilnehmer A hat Ihnen 2 Punkte übermittelt.","Payback","1","undefined","14","0","4","60","1080","291","5","1","964","0","legacy","[11, 21, 31, 41, 51, 61, 71, 81, 91, 101, 111, 121, 131, 141, 151, 161, 171, 181, 191, 201, 211, 221, 231, 241, 251, 261, 271, 281, 291, 301, 311, 321, 331, 341, 351, 361, 371, 381, 391, 401, 411, 421, 431, 441, 451, 461, 471, 481, 491, 501, 511, 521, 531, 541, 551, 561, 571, 581, 591, 601, 611, 621, 631, 641, 651, 661, 671, 681, 691, 701, 711, 721, 731, 741, 751, 761, 771, 781, 791, 801, 811, 821, 831, 841, 851, 861, 871, 881, 891, 901, 911, 921, 931, 941, 951, 961]","1078","1920","[960, 960, 960, 960, 960, 960, 960, 960, 960, 960, 960, 960, 960, 960, 960, 960, 960, 960, 960, 960, 960, 960, 962, 967, 976, 1009, 1028, 1052, 1077, 1126, 1155, 1194, 1228, 1287, 1315, 1351, 1380, 1437, 1463, 1488, 1506, 1543, 1558, 1572, 1588, 1622, 1636, 1649, 1665, 1686, 1696, 1705, 1718, 1735, 1745, 1751, 1759, 1772, 1778, 1784, 1790, 1800, 1805, 1811, 1815, 1823, 1828, 1832, 1833, 1837, 1838, 1839, 1839, 1840, 1840, 1840, 1841, 1841, 1841, 1841, 1841, 1841, 1841, 1841, 1841, 1841, 1841, 1841, 1841, 1841, 1841, 1841, 1841, 1841, 1841, 1841]","[1010, 1010, 1010, 1010, 1010, 1010, 1010, 1010, 1010, 1010, 1010, 1010, 1010, 1010, 1010, 1010, 1010, 1010, 1010, 1010, 1010, 1010, 1010, 1006, 1001, 977, 966, 945, 927, 886, 865, 838, 809, 766, 745, 720, 699, 652, 627, 601, 578, 536, 516, 501, 481, 435, 415, 398, 375, 347, 328, 314, 297, 271, 258, 246, 235, 213, 202, 192, 182, 164, 155, 147, 139, 126, 119, 113, 110, 103, 101, 99, 98, 95, 95, 94, 94, 94, 94, 94, 94, 94, 94, 94, 94, 94, 94, 94, 94, 94, 94, 94, 94, 94, 94, 94]"
"Promise","Wie oft werden Sie die Hälfte zurückgeben?","Promise","1","undefined","14","0","5","60","1080","331","5","1","1153","0","legacy","[11, 21, 31, 41, 51, 61, 71, 81, 91, 101, 111, 121, 131, 141, 151, 161, 171, 181, 191, 201, 211, 221, 231, 241, 251, 261, 271, 281, 291, 301, 311, 321, 331, 341, 351, 361, 371, 381, 391, 401, 411, 421, 431, 441, 451, 461, 471, 481, 491, 501, 511, 521, 531, 541, 551, 561, 571, 581, 591, 601, 611, 621, 631, 641, 651, 661, 671, 681, 691, 701, 711, 721, 731, 741, 751, 761, 771, 781, 791, 801, 811, 821, 831, 841, 851, 861, 871, 881, 891, 901, 911, 921, 931, 941, 951, 961, 971, 981, 991, 1001, 1011, 1021, 1031, 1041, 1051, 1061, 1071, 1081, 1091, 1101, 1111, 1121, 1131, 1141, 1151]","1078","1920","[960, 960, 960, 960, 960, 960, 960, 960, 960, 960, 960, 960, 960, 960, 960, 960, 960, 960, 960, 965, 968, 972, 976, 990, 996, 1005, 1011, 1031, 1039, 1050, 1066, 1089, 1101, 1111, 1124, 1152, 1168, 1182, 1197, 1224, 1246, 1269, 1289, 1331, 1351, 1375, 1396, 1434, 1450, 1469, 1482, 1513, 1527, 1542, 1557, 1585, 1603, 1614, 1632, 1663, 1678, 1695, 1710, 1745, 1763, 1781, 1795, 1819, 1829, 1844, 1853, 1871, 1878, 1883, 1887, 1893, 1896, 1900, 1901, 1905, 1907, 1910, 1910, 1915, 1916, 1917, 1917, 1919, 1919, 1919, 1919, 1919, 1919, 1919, 1919, 1918, 1918, 1918, 1917, 1917, 1917, 1917, 1917, 1917, 1917, 1917, 1916, 1916, 1916, 1916, 1916, 1916, 1916, 1916, 1916]","[1010, 1010, 1010, 1010, 1010, 1010, 1010, 1010, 1010, 1010, 1010, 1010, 1010, 1010, 1010, 1010, 1010, 1010, 1010, 1010, 1010, 1006, 1003, 994, 991, 987, 982, 971, 967, 960, 954, 941, 936, 929, 922, 904, 893, 884, 874, 852, 836, 819, 804, 774, 759, 739, 719, 687, 671, 650, 635, 599, 584, 566, 548, 515, 495, 482, 462, 426, 405, 387, 370, 328, 310, 289, 274, 247, 237, 222, 210, 189, 180, 172, 167, 154, 149, 142, 139, 129, 125, 120, 117, 106, 103, 99, 94, 90, 81, 79, 76, 74, 70, 69, 68, 66, 65, 65, 64, 64, 64, 64, 64, 64, 64, 64, 64, 64, 64, 64, 64, 64, 64, 64, 64]"
"NoTrust","Teilnehmer A hat Ihnen keine 2 Punkte übermittelt.","Payback","1","undefined","15","0","5","60","1080","331","0","1","1153","0","legacy","[11, 21, 31, 41, 51, 61, 71, 81, 91, 101, 111, 121, 131, 141, 151, 161, 171, 181, 191, 201, 211, 221, 231, 241, 251, 261, 271, 281, 291, 301, 311, 321, 331, 341, 351, 361, 371, 381, 391, 401, 411, 421, 431, 441, 451, 461, 471, 481, 491, 501, 511, 521, 531, 541, 551, 561, 571, 581, 591, 601, 611, 621, 631, 641, 651, 661, 671, 681, 691, 701, 711, 721, 731, 741, 751, 761, 771, 781, 791, 801, 811, 821, 831, 841, 851, 861, 871, 881, 891, 901, 911, 921, 931, 941, 951, 961, 971, 981, 991, 1001, 1011, 1021, 1031, 1041, 1051, 1061, 1071, 1081, 1091, 1101, 1111, 1121, 1131, 1141, 1151]","1078","1920","[960, 960, 960, 960, 960, 960, 960, 960, 960, 960, 960, 960, 960, 960, 960, 960, 960, 960, 960, 965, 968, 972, 976, 990, 996, 1005, 1011, 1031, 1039, 1050, 1066, 1089, 1101, 1111, 1124, 1152, 1168, 1182, 1197, 1224, 1246, 1269, 1289, 1331, 1351, 1375, 1396, 1434, 1450, 1469, 1482, 1513, 1527, 1542, 1557, 1585, 1603, 1614, 1632, 1663, 1678, 1695, 1710, 1745, 1763, 1781, 1795, 1819, 1829, 1844, 1853, 1871, 1878, 1883, 1887, 1893, 1896, 1900, 1901, 1905, 1907, 1910, 1910, 1915, 1916, 1917, 1917, 1919, 1919, 1919, 1919, 1919, 1919, 1919, 1919, 1918, 1918, 1918, 1917, 1917, 1917, 1917, 1917, 1917, 1917, 1917, 1916, 1916, 1916, 1916, 1916, 1916, 1916, 1916, 1916]","[1010, 1010, 1010, 1010, 1010, 1010, 1010, 1010, 1010, 1010, 1010, 1010, 1010, 1010, 1010, 1010, 1010, 1010, 1010, 1010, 1010, 1006, 1003, 994, 991, 987, 982, 971, 967, 960, 954, 941, 936, 929, 922, 904, 893, 884, 874, 852, 836, 819, 804, 774, 759, 739, 719, 687, 671, 650, 635, 599, 584, 566, 548, 515, 495, 482, 462, 426, 405, 387, 370, 328, 310, 289, 274, 247, 237, 222, 210, 189, 180, 172, 167, 154, 149, 142, 139, 129, 125, 120, 117, 106, 103, 99, 94, 90, 81, 79, 76, 74, 70, 69, 68, 66, 65, 65, 64, 64, 64, 64, 64, 64, 64, 64, 64, 64, 64, 64, 64, 64, 64, 64, 64]"
"Trust","Teilnehmer A hat Ihnen 2 Punkte übermittelt.","Payback","0","undefined","16","0","5","60","1080","301","10","2","1182","0","legacy","[11, 21, 31, 41, 51, 61, 71, 81, 91, 101, 111, 121, 131, 141, 151, 161, 171, 181, 191, 201, 211, 221, 231, 241, 251, 261, 271, 281, 291, 301, 311, 321, 331, 341, 351, 361, 371, 381, 391, 401, 411, 421, 431, 441, 451, 461, 471, 481, 491, 501, 511, 521, 531, 541, 551, 561, 571, 581, 591, 601, 611, 621, 631, 641, 651, 661, 671, 681, 691, 701, 711, 721, 731, 741, 751, 761, 771, 781, 791, 801, 811, 821, 831, 841, 851, 861, 871, 881, 891, 901, 911, 921, 931, 941, 951, 961, 971, 981, 991, 1001, 1011, 1021, 1031, 1041, 1051, 1061, 1071, 1081, 1091, 1101, 1111, 1121, 1131, 1141, 1151, 1161, 1171, 1181]","1078","1920","[960, 960, 960, 961, 962, 962, 962, 962, 962, 962, 962, 962, 962, 962, 962, 962, 962, 962, 962, 962, 962, 960, 957, 954, 951, 946, 937, 928, 916, 903, 881, 869, 858, 846, 817, 801, 788, 776, 751, 739, 729, 715, 692, 683, 676, 668, 650, 642, 630, 617, 596, 582, 566, 552, 526, 511, 502, 489, 462, 453, 440, 429, 408, 397, 384, 376, 359, 352, 347, 342, 332, 328, 325, 322, 314, 311, 308, 306, 303, 303, 302, 301, 300, 300, 300, 300, 300, 300, 299, 298, 295, 291, 283, 276, 256, 239, 227, 208, 180, 165, 151, 140, 120, 115, 111, 109, 106, 106, 106, 106, 106, 106, 106, 106, 106, 106, 106, 106]","[1010, 1010, 1010, 1010, 1010, 1010, 1010, 1010, 1010, 1010, 1010, 1010, 1010, 1010, 1010, 1010, 1010, 1010, 1008, 1006, 1004, 1002, 996, 993, 989, 983, 969, 959, 945, 932, 905, 890, 877, 862, 829, 809, 792, 777, 745, 725, 711, 696, 662, 646, 634, 616, 588, 572, 553, 536, 507, 489, 469, 453, 423, 405, 393, 376, 343, 329, 312, 298, 273, 259, 244, 232, 211, 201, 194, 189, 174, 166, 159, 154, 143, 141, 137, 135, 132, 130, 130, 129, 128, 128, 128, 128, 128, 127, 127, 125, 124, 123, 119, 116, 107, 99, 94, 87, 73, 67, 60, 54, 43, 41, 38, 37, 36, 36, 36, 36, 36, 36, 36, 36, 36, 36, 36, 36]"
"Trust","Teilnehmer A hat Ihnen 2 Punkte übermittelt.","Payback","0","undefined","17","0","5","60","1080","371","10","2","1439","0","legacy","[11, 21, 31, 41, 51, 61, 71, 81, 91, 101, 111, 121, 131, 141, 151, 161, 171, 181, 191, 201, 211, 221, 231, 241, 251, 261, 271, 281, 291, 301, 311, 321, 331, 341, 351, 361, 371, 381, 391, 401, 411, 421, 431, 441, 451, 461, 471, 481, 491, 501, 511, 521, 531, 541, 551, 561, 571, 581, 591, 601, 611, 621, 631, 641, 651, 661, 671, 681, 691, 701, 711, 721, 731, 741, 751, 761, 771, 781, 791, 801, 811, 821, 831, 841, 851, 861, 871, 881, 891, 901, 911, 921, 931, 941, 951, 961, 971, 981, 991, 1001, 1011, 1021, 1031, 1041, 1051, 1061, 1071, 1081, 1091, 1101, 1111, 1121, 1131, 1141, 1151, 1161, 1171, 1181, 1191, 1201, 1211, 1221, 1231, 1241, 1251, 1261, 1271, 1281, 1291, 1301, 1311, 1321, 1331, 1341, 1351, 1361, 1371, 1381, 1391, 1401, 1411, 1421, 1431]","1078","1920","[960, 960, 960, 960, 960, 960, 960, 960, 960, 960, 960, 960, 960, 960, 960, 960, 960, 960, 960, 960, 960, 960, 960, 960, 960, 960, 960, 960, 958, 956, 951, 943, 939, 934, 931, 919, 906, 890, 877, 851, 843, 832, 822, 808, 799, 790, 776, 757, 746, 740, 733, 720, 714, 709, 703, 687, 680, 671, 661, 639, 627, 612, 595, 558, 543, 523, 509, 483, 470, 454, 444, 425, 415, 406, 395, 374, 363, 353, 343, 324, 315, 306, 296, 278, 270, 262, 257, 245, 241, 236, 229, 218, 212, 206, 201, 189, 185, 179, 176, 169, 164, 161, 157, 148, 146, 143, 142, 141, 141, 141, 141, 141, 141, 141, 141, 141, 141, 141, 141, 141, 141, 141, 141, 141, 141, 141, 141, 141, 141, 141, 141, 141, 141, 141, 141, 141, 141, 140, 140, 140, 140, 140, 140]","[1010, 1010, 1010, 1010, 1010, 1010, 1010, 1010, 1010, 1010, 1010, 1010, 1010, 1010, 1010, 1010, 1010, 1010, 1010, 1010, 1010, 1010, 1010, 1010, 1010, 1010, 1010, 1010, 1010, 1008, 1004, 995, 989, 981, 974, 951, 930, 905, 883, 842, 823, 809, 790, 766, 751, 735, 715, 689, 673, 663, 648, 626, 615, 605, 595, 572, 562, 551, 542, 522, 512, 500, 485, 459, 448, 433, 424, 407, 400, 390, 383, 368, 360, 352, 344, 327, 320, 312, 305, 290, 283, 275, 266, 250, 243, 236, 227, 213, 206, 199, 189, 174, 168, 159, 151, 135, 126, 119, 109, 93, 84, 76, 69, 56, 51, 49, 46, 44, 44, 44, 44, 44, 44, 44, 44, 44, 44, 44, 44, 44, 44, 44, 44, 44, 44, 44, 44, 44, 44, 44, 44, 43, 43, 41, 40, 40, 40, 38, 38, 37, 37, 37, 35]"
"Promise","Wie oft werden Sie die Hälfte zurückgeben?","Promise","0","undefined","17","0","6","60","1080","641","10","2","1504","0","legacy","[11, 21, 31, 41, 51, 61, 71, 81, 91, 101, 111, 121, 131, 141, 151, 161, 171, 181, 191, 201, 211, 221, 231, 241, 251, 261, 271, 281, 291, 301, 311, 321, 331, 341, 351, 361, 371, 381, 391, 401, 411, 421, 431, 441, 451, 461, 471, 481, 491, 501, 511, 521, 531, 541, 551, 561, 571, 581, 591, 601, 611, 621, 631, 641, 651, 661, 671, 681, 691, 701, 711, 721, 731, 741, 751, 761, 771, 781, 791, 801, 811, 821, 831, 841, 851, 861, 871, 881, 891, 901, 911, 921, 931, 941, 951, 961, 971, 981, 991, 1001, 1011, 1021, 1031, 1041, 1051, 1061, 1071, 1081, 1091, 1101, 1111, 1121, 1131, 1141, 1151, 1161, 1171, 1181, 1191, 1201, 1211, 1221, 1231, 1241, 1251, 1261, 1271, 1281, 1291, 1301, 1311, 1321, 1331, 1341, 1351, 1361, 1371, 1381, 1391, 1401, 1411, 1421, 1431, 1441, 1451, 1461, 1471, 1481, 1491, 1501]","1078","1920","[960, 960, 960, 960, 960, 960, 960, 960, 960, 960, 960, 960, 960, 960, 960, 960, 960, 960, 960, 960, 960, 960, 960, 960, 960, 960, 960, 960, 960, 960, 960, 960, 960, 960, 960, 960, 960, 960, 960, 960, 960, 960, 960, 960, 960, 960, 960, 960, 960, 960, 960, 960, 960, 960, 960, 962, 963, 965, 968, 974, 977, 980, 985, 990, 993, 994, 995, 995, 995, 995, 995, 995, 995, 992, 986, 977, 973, 968, 961, 948, 942, 935, 928, 912, 905, 895, 889, 871, 861, 850, 841, 814, 803, 790, 776, 746, 732, 721, 709, 692, 682, 673, 662, 643, 634, 623, 611, 590, 573, 556, 543, 509, 489, 472, 458, 425, 408, 387, 368, 329, 313, 296, 283, 262, 251, 240, 229, 207, 198, 191, 185, 180, 179, 176, 174, 171, 170, 170, 169, 169, 169, 169, 169, 169, 169, 169, 169, 169, 169, 169]","[1010, 1010, 1010, 1010, 1010, 1010, 1010, 1010, 1010, 1010, 1010, 1010, 1010, 1010, 1010, 1010, 1010, 1010, 1010, 1010, 1010, 1010, 1010, 1010, 1010, 1010, 1010, 1010, 1010, 1010, 1010, 1010, 1010, 1010, 1010, 1010, 1010, 1010, 1010, 1010, 1010, 1010, 1010, 1010, 1010, 1010, 1010, 1010, 1010, 1010, 1010, 1006, 1004, 1003, 1000, 992, 989, 982, 977, 964, 955, 949, 940, 923, 916, 909, 900, 883, 872, 865, 854, 833, 825, 817, 805, 784, 771, 761, 748, 727, 715, 705, 695, 670, 660, 648, 638, 613, 599, 585, 573, 542, 530, 512, 497, 462, 446, 434, 419, 398, 384, 374, 362, 341, 331, 320, 308, 289, 276, 265, 254, 228, 214, 203, 193, 172, 162, 150, 140, 121, 115, 108, 104, 97, 94, 91, 89, 84, 81, 79, 76, 74, 74, 72, 71, 69, 69, 68, 68, 68, 68, 68, 68, 68, 68, 68, 68, 68, 68, 68]"
"Trust","Teilnehmer A hat Ihnen 2 Punkte übermittelt.","Payback","1","undefined","18","0","6","60","1080","391","5","1","1420","0","legacy","[11, 21, 31, 41, 51, 61, 71, 81, 91, 101, 111, 121, 131, 141, 151, 161, 171, 181, 191, 201, 211, 221, 231, 241, 251, 261, 271, 281, 291, 301, 311, 321, 331, 341, 351, 361, 371, 381, 391, 401, 411, 421, 431, 441, 451, 461, 471, 481, 491, 501, 511, 521, 531, 541, 551, 561, 571, 581, 591, 601, 611, 621, 631, 641, 651, 661, 671, 681, 691, 701, 711, 721, 731, 741, 751, 761, 771, 781, 791, 801, 811, 821, 831, 841, 851, 861, 871, 881, 891, 901, 911, 921, 931, 941, 951, 961, 971, 981, 991, 1001, 1011, 1021, 1031, 1041, 1051, 1061, 1071, 1081, 1091, 1101, 1111, 1121, 1131, 1141, 1151, 1161, 1171, 1181, 1191, 1201, 1211, 1221, 1231, 1241, 1251, 1261, 1271, 1281, 1291, 1301, 1311, 1321, 1331, 1341, 1351, 1361, 1371, 1381, 1391, 1401, 1411]","1078","1920","[960, 960, 960, 960, 960, 960, 960, 960, 960, 960, 960, 960, 960, 960, 960, 960, 960, 960, 960, 960, 960, 960, 960, 960, 960, 957, 956, 954, 952, 948, 944, 942, 937, 929, 923, 914, 906, 886, 872, 859, 847, 819, 804, 789, 777, 749, 737, 727, 718, 703, 700, 697, 693, 688, 687, 686, 686, 686, 686, 689, 696, 712, 723, 746, 775, 857, 901, 954, 1008, 1126, 1190, 1252, 1317, 1429, 1480, 1532, 1573, 1649, 1677, 1703, 1725, 1751, 1757, 1764, 1768, 1778, 1783, 1787, 1790, 1797, 1798, 1799, 1799, 1799, 1799, 1799, 1799, 1799, 1801, 1801, 1801, 1801, 1801, 1801, 1801, 1801, 1801, 1801, 1801, 1801, 1801, 1801, 1801, 1801, 1801, 1801, 1801, 1801, 1801, 1801, 1801, 1801, 1801, 1801, 1801, 1801, 1801, 1801, 1801, 1801, 1801, 1801, 1801, 1801, 1801, 1801, 1801, 1801, 1801, 1801, 1801]","[1010, 1010, 1010, 1010, 1010, 1010, 1010, 1010, 1010, 1010, 1010, 1010, 1010, 1010, 1010, 1010, 1010, 1010, 1010, 1010, 1010, 1010, 1010, 1011, 1011, 1011, 1011, 1010, 1009, 1006, 1003, 1001, 997, 988, 983, 975, 969, 951, 939, 930, 918, 895, 882, 868, 859, 833, 825, 816, 807, 794, 789, 785, 780, 769, 766, 759, 755, 745, 739, 733, 724, 707, 701, 691, 677, 648, 635, 617, 594, 547, 524, 501, 472, 427, 404, 380, 356, 310, 291, 272, 258, 234, 223, 214, 206, 190, 181, 173, 169, 156, 154, 151, 148, 146, 143, 141, 139, 134, 131, 129, 126, 122, 120, 118, 117, 114, 112, 112, 112, 111, 111, 111, 111, 111, 111, 111, 111, 111, 111, 111, 111, 111, 111, 111, 111, 111, 111, 111, 111, 111, 111, 111, 111, 111, 111, 111, 111, 111, 111, 111, 111]"
"Trust","Teilnehmer A hat Ihnen 2 Punkte übermittelt.","Payback","0","undefined","19","0","6","60","1080","401","10","2","1028","0","legacy","[11, 21, 31, 41, 51, 61, 71, 81, 91, 101, 111, 121, 131, 141, 151, 161, 171, 181, 191, 201, 211, 221, 231, 241, 251, 261, 271, 281, 291, 301, 311, 321, 331, 341, 351, 361, 371, 381, 391, 401, 411, 421, 431, 441, 451, 461, 471, 481, 491, 501, 511, 521, 531, 541, 551, 561, 571, 581, 591, 601, 611, 621, 631, 641, 651, 661, 671, 681, 691, 701, 711, 721, 731, 741, 751, 761, 771, 781, 791, 801, 811, 821, 831, 841, 851, 861, 871, 881, 891, 901, 911, 921, 931, 941, 951, 961, 971, 981, 991, 1001, 1011, 1021]","1078","1920","[960, 960, 960, 960, 960, 960, 960, 960, 960, 960, 960, 960, 960, 960, 960, 960, 960, 960, 960, 960, 960, 960, 960, 960, 960, 960, 960, 961, 961, 962, 962, 962, 962, 962, 962, 959, 953, 939, 928, 915, 899, 862, 841, 823, 799, 764, 743, 725, 704, 660, 634, 606, 580, 521, 491, 462, 437, 392, 372, 357, 338, 308, 295, 286, 276, 256, 244, 233, 220, 201, 188, 178, 171, 155, 146, 140, 135, 125, 120, 117, 114, 107, 104, 103, 102, 100, 100, 100, 100, 100, 100, 100, 100, 100, 100, 100, 100, 100, 100, 100, 100, 100]","[1010, 1010, 1010, 1010, 1010, 1010, 1010, 1010, 1010, 1010, 1010, 1010, 1010, 1010, 1010, 1010, 1010, 1010, 1010, 1010, 1010, 1010, 1010, 1010, 1010, 1010, 1009, 1009, 1007, 1006, 1006, 1004, 1003, 1000, 995, 991, 983, 961, 944, 927, 904, 863, 837, 818, 796, 759, 740, 723, 704, 668, 648, 624, 606, 565, 543, 522, 503, 471, 457, 443, 427, 400, 387, 377, 363, 341, 326, 314, 299, 275, 260, 246, 236, 212, 195, 186, 176, 154, 143, 134, 127, 113, 106, 102, 100, 96, 95, 95, 95, 95, 95, 95, 95, 95, 95, 95, 95, 95, 95, 95, 95, 95]"
"Trust","Teilnehmer A hat Ihnen 2 Punkte übermittelt.","Payback","1","undefined","20","0","6","60","1080","351","5","1","1229","0","legacy","[11, 21, 31, 41, 51, 61, 71, 81, 91, 101, 111, 121, 131, 141, 151, 161, 171, 181, 191, 201, 211, 221, 231, 241, 251, 261, 271, 281, 291, 301, 311, 321, 331, 341, 351, 361, 371, 381, 391, 401, 411, 421, 431, 441, 451, 461, 471, 481, 491, 501, 511, 521, 531, 541, 551, 561, 571, 581, 591, 601, 611, 621, 631, 641, 651, 661, 671, 681, 691, 701, 711, 721, 731, 741, 751, 761, 771, 781, 791, 801, 811, 821, 831, 841, 851, 861, 871, 881, 891, 901, 911, 921, 931, 941, 951, 961, 971, 981, 991, 1001, 1011, 1021, 1031, 1041, 1051, 1061, 1071, 1081, 1091, 1101, 1111, 1121, 1131, 1141, 1151, 1161, 1171, 1181, 1191, 1201, 1211, 1221]","1078","1920","[960, 960, 960, 960, 960, 960, 960, 960, 960, 960, 960, 960, 960, 960, 960, 960, 960, 960, 960, 960, 960, 960, 962, 963, 965, 966, 975, 980, 987, 993, 1007, 1016, 1026, 1033, 1048, 1056, 1064, 1073, 1094, 1105, 1117, 1126, 1157, 1173, 1194, 1212, 1253, 1271, 1295, 1308, 1344, 1362, 1378, 1392, 1421, 1430, 1438, 1448, 1466, 1473, 1480, 1485, 1501, 1506, 1511, 1517, 1528, 1534, 1541, 1548, 1562, 1566, 1573, 1578, 1588, 1590, 1595, 1598, 1605, 1608, 1612, 1615, 1623, 1626, 1629, 1633, 1639, 1643, 1647, 1651, 1659, 1663, 1668, 1673, 1681, 1685, 1687, 1691, 1696, 1698, 1700, 1701, 1703, 1704, 1705, 1706, 1706, 1708, 1708, 1709, 1710, 1710, 1711, 1711, 1711, 1711, 1712, 1712, 1712, 1712, 1712, 1712]","[1010, 1010, 1010, 1010, 1010, 1010, 1010, 1010, 1010, 1010, 1010, 1010, 1010, 1010, 1010, 1010, 1010, 1010, 1010, 1010, 1010, 1010, 1006, 1004, 1002, 999, 992, 988, 983, 979, 967, 959, 951, 946, 932, 924, 919, 911, 892, 882, 872, 863, 837, 823, 804, 787, 752, 735, 715, 698, 656, 636, 613, 598, 565, 553, 541, 528, 504, 494, 481, 470, 445, 433, 421, 409, 383, 370, 357, 344, 317, 306, 293, 283, 264, 257, 250, 244, 231, 225, 219, 216, 206, 202, 197, 194, 186, 181, 178, 174, 165, 162, 158, 154, 147, 144, 142, 138, 131, 128, 125, 122, 118, 114, 114, 112, 110, 109, 108, 108, 107, 107, 106, 106, 105, 105, 105, 105, 105, 105, 105, 105]"
"Promise","Wie oft werden Sie die Hälfte zurückgeben?","Promise","1","undefined","20","0","7","60","1080","601","5","1","2104","0","legacy","[11, 21, 31, 41, 51, 61, 71, 81, 91, 101, 111, 121, 131, 141, 151, 161, 171, 181, 191, 201, 211, 221, 231, 241, 251, 261, 271, 281, 291, 301, 311, 321, 331, 341, 351, 361, 371, 381, 391, 401, 411, 421, 431, 441, 451, 461, 471, 481, 491, 501, 511, 521, 531, 541, 551, 561, 571, 581, 591, 601, 611, 621, 631, 641, 651, 661, 671, 681, 691, 701, 711, 721, 731, 741, 751, 761, 771, 781, 791, 801, 811, 821, 831, 841, 851, 861, 871, 881, 891, 901, 911, 921, 931, 941, 951, 961, 971, 981, 991, 1001, 1011, 1021, 1031, 1041, 1051, 1061, 1071, 1081, 1091, 1101, 1111, 1121, 1131, 1141, 1151, 1161, 1171, 1181, 1191, 1201, 1211, 1221, 1231, 1241, 1251, 1261, 1271, 1281, 1291, 1301, 1311, 1321, 1331, 1341, 1351, 1361, 1371, 1381, 1391, 1401, 1411, 1421, 1431, 1441, 1451, 1461, 1471, 1481, 1491, 1501, 1511, 1521, 1531, 1541, 1551, 1561, 1571, 1581, 1591, 1601, 1611, 1621, 1631, 1641, 1651, 1661, 1671, 1681, 1691, 1701, 1711, 1721, 1731, 1741, 1751, 1761, 1771, 1781, 1791, 1801, 1811, 1821, 1831, 1841, 1851, 1861, 1871, 1881, 1891, 1901, 1911, 1921, 1931, 1941, 1951, 1961, 1971, 1981, 1991, 2001, 2011, 2021, 2031, 2041, 2051, 2061, 2071, 2081, 2091, 2101]","1078","1920","[960, 960, 960, 960, 960, 960, 960, 960, 960, 960, 960, 960, 960, 960, 960, 960, 960, 960, 960, 960, 960, 960, 960, 960, 960, 960, 960, 960, 960, 960, 960, 960, 960, 960, 960, 960, 960, 960, 960, 960, 960, 960, 959, 951, 947, 942, 937, 928, 923, 919, 914, 906, 904, 899, 891, 882, 873, 867, 858, 839, 827, 818, 808, 791, 786, 783, 779, 768, 762, 757, 752, 734, 723, 707, 693, 657, 642, 623, 608, 582, 572, 561, 550, 530, 521, 514, 505, 486, 473, 460, 447, 428, 418, 407, 400, 388, 383, 377, 372, 362, 357, 353, 351, 343, 340, 336, 332, 323, 318, 310, 303, 287, 279, 269, 260, 247, 241, 237, 233, 227, 225, 224, 224, 224, 224, 224, 224, 224, 224, 224, 224, 224, 224, 224, 227, 252, 273, 302, 346, 441, 498, 561, 640, 789, 856, 928, 1002, 1139, 1201, 1253, 1297, 1372, 1407, 1430, 1457, 1499, 1523, 1539, 1559, 1594, 1613, 1631, 1652, 1705, 1728, 1753, 1776, 1809, 1819, 1828, 1834, 1838, 1841, 1844, 1847, 1853, 1856, 1857, 1858, 1860, 1862, 1863, 1864, 1867, 1867, 1867, 1868, 1868, 1868, 1868, 1868, 1868, 1868, 1868, 1868, 1868, 1868, 1868, 1868, 1868, 1867, 1867, 1867, 1867, 1867, 1867, 1867, 1867, 1867, 1867]","[1010, 1010, 1010, 1010, 1010, 1010, 1010, 1010, 1010, 1010, 1010, 1010, 1010, 1010, 1010, 1010, 1010, 1010, 1010, 1010, 1010, 1010, 1010, 1010, 1010, 1010, 1010, 1010, 1010, 1010, 1010, 1010, 1010, 1010, 1010, 1010, 1010, 1010, 1010, 1010, 1010, 1010, 1010, 1010, 1009, 1006, 1004, 999, 997, 995, 992, 986, 983, 978, 973, 964, 957, 952, 944, 927, 918, 910, 900, 884, 878, 871, 863, 846, 834, 824, 812, 781, 766, 744, 728, 689, 675, 658, 644, 614, 602, 585, 571, 540, 524, 511, 497, 468, 451, 434, 416, 388, 374, 359, 349, 329, 321, 312, 302, 285, 277, 267, 262, 242, 236, 227, 218, 205, 197, 188, 178, 157, 147, 133, 124, 110, 103, 99, 93, 87, 85, 83, 83, 83, 83, 83, 83, 83, 83, 83, 83, 83, 83, 83, 83, 97, 106, 120, 131, 159, 173, 181, 192, 214, 216, 216, 216, 211, 203, 193, 181, 159, 145, 134, 120, 103, 90, 82, 73, 53, 45, 36, 28, 9, 2, 0, 0, 0, 0, 0, 0, 0, 0, 0, 0, 0, 0, 0, 0, 0, 0, 1, 1, 2, 3, 3, 3, 4, 5, 6, 6, 7, 7, 7, 7, 7, 7, 8, 8, 10, 11, 11, 12, 12, 12, 12, 12, 12, 12, 12]"
"Trust","Teilnehmer A hat Ihnen 2 Punkte übermittelt.","Payback","1","undefined","21","0","7","60","1080","361","5","1","1269","0","legacy","[11, 21, 31, 41, 51, 61, 71, 81, 91, 101, 111, 121, 131, 141, 151, 161, 171, 181, 191, 201, 211, 221, 231, 241, 251, 261, 271, 281, 291, 301, 311, 321, 331, 341, 351, 361, 371, 381, 391, 401, 411, 421, 431, 441, 451, 461, 471, 481, 491, 501, 511, 521, 531, 541, 551, 561, 571, 581, 591, 601, 611, 621, 631, 641, 651, 661, 671, 681, 691, 701, 711, 721, 731, 741, 751, 761, 771, 781, 791, 801, 811, 821, 831, 841, 851, 861, 871, 881, 891, 901, 911, 921, 931, 941, 951, 961, 971, 981, 991, 1001, 1011, 1021, 1031, 1041, 1051, 1061, 1071, 1081, 1091, 1101, 1111, 1121, 1131, 1141, 1151, 1161, 1171, 1181, 1191, 1201, 1211, 1221, 1231, 1241, 1251, 1261]","1078","1920","[960, 960, 960, 960, 960, 960, 960, 960, 960, 960, 960, 960, 960, 960, 960, 960, 960, 960, 960, 960, 960, 960, 960, 962, 962, 964, 968, 971, 975, 979, 988, 992, 999, 1004, 1016, 1021, 1026, 1030, 1038, 1044, 1048, 1055, 1066, 1070, 1076, 1104, 1115, 1129, 1142, 1158, 1199, 1220, 1241, 1279, 1298, 1308, 1319, 1342, 1351, 1361, 1368, 1379, 1383, 1387, 1393, 1397, 1404, 1409, 1412, 1420, 1423, 1427, 1431, 1441, 1446, 1451, 1456, 1472, 1482, 1492, 1503, 1525, 1536, 1546, 1556, 1573, 1580, 1586, 1592, 1601, 1620, 1629, 1642, 1659, 1667, 1672, 1676, 1684, 1686, 1689, 1691, 1698, 1700, 1704, 1704, 1711, 1713, 1716, 1718, 1724, 1726, 1730, 1733, 1737, 1739, 1741, 1742, 1744, 1744, 1745, 1745, 1745, 1745, 1745, 1746, 1746]","[1010, 1010, 1010, 1010, 1010, 1010, 1010, 1010, 1010, 1010, 1010, 1010, 1010, 1010, 1010, 1010, 1010, 1010, 1010, 1010, 1010, 1010, 1010, 1009, 1008, 1006, 1001, 997, 991, 986, 974, 966, 960, 954, 940, 935, 927, 921, 908, 899, 891, 881, 862, 854, 844, 803, 788, 769, 751, 729, 677, 649, 620, 577, 556, 539, 522, 491, 477, 465, 453, 436, 427, 418, 408, 400, 387, 380, 373, 360, 354, 348, 343, 333, 327, 322, 318, 305, 298, 290, 283, 272, 265, 260, 254, 245, 242, 238, 234, 228, 218, 213, 206, 194, 188, 184, 178, 168, 165, 162, 159, 150, 147, 142, 140, 133, 128, 124, 122, 114, 112, 108, 104, 98, 95, 93, 91, 88, 87, 87, 87, 85, 85, 85, 85, 85]"
"Trust","Teilnehmer A hat Ihnen 2 Punkte übermittelt.","Payback","1","undefined","22","0","7","60","1080","361","5","1","1108","0","legacy","[11, 21, 31, 41, 51, 61, 71, 81, 91, 101, 111, 121, 131, 141, 151, 161, 171, 181, 191, 201, 211, 221, 231, 241, 251, 261, 271, 281, 291, 301, 311, 321, 331, 341, 351, 361, 371, 381, 391, 401, 411, 421, 431, 441, 451, 461, 471, 481, 491, 501, 511, 521, 531, 541, 551, 561, 571, 581, 591, 601, 611, 621, 631, 641, 651, 661, 671, 681, 691, 701, 711, 721, 731, 741, 751, 761, 771, 781, 791, 801, 811, 821, 831, 841, 851, 861, 871, 881, 891, 901, 911, 921, 931, 941, 951, 961, 971, 981, 991, 1001, 1011, 1021, 1031, 1041, 1051, 1061, 1071, 1081, 1091, 1101]","1078","1920","[960, 960, 960, 960, 960, 960, 960, 960, 960, 960, 960, 960, 960, 960, 960, 960, 960, 960, 960, 960, 960, 960, 962, 964, 965, 970, 973, 976, 980, 992, 999, 1006, 1013, 1030, 1038, 1047, 1056, 1079, 1091, 1106, 1129, 1169, 1184, 1204, 1218, 1250, 1266, 1281, 1299, 1328, 1339, 1349, 1359, 1376, 1387, 1396, 1406, 1423, 1433, 1442, 1452, 1477, 1490, 1504, 1519, 1549, 1563, 1580, 1598, 1626, 1636, 1647, 1659, 1681, 1690, 1697, 1708, 1723, 1728, 1734, 1739, 1746, 1749, 1752, 1754, 1757, 1758, 1759, 1759, 1761, 1761, 1762, 1762, 1762, 1762, 1762, 1762, 1762, 1762, 1762, 1762, 1762, 1762, 1762, 1762, 1762, 1762, 1762, 1762, 1762]","[1010, 1010, 1010, 1010, 1010, 1010, 1010, 1010, 1010, 1010, 1010, 1010, 1010, 1010, 1010, 1010, 1010, 1010, 1010, 1010, 1010, 1010, 1010, 1010, 1010, 1006, 1003, 1001, 997, 988, 981, 975, 967, 950, 943, 934, 923, 901, 888, 874, 856, 827, 815, 801, 792, 767, 758, 746, 733, 708, 698, 689, 678, 660, 648, 638, 626, 604, 590, 576, 564, 528, 508, 488, 468, 426, 404, 381, 358, 307, 292, 271, 252, 214, 197, 184, 167, 143, 131, 121, 112, 96, 89, 83, 78, 71, 68, 66, 65, 63, 62, 61, 60, 59, 58, 58, 58, 58, 58, 58, 58, 58, 58, 58, 58, 58, 58, 58, 58, 58]"
"Trust","Teilnehmer A hat Ihnen 2 Punkte übermittelt.","Payback","1","undefined","23","0","7","60","1080","311","5","1","1236","0","legacy","[11, 21, 31, 41, 51, 61, 71, 81, 91, 101, 111, 121, 131, 141, 151, 161, 171, 181, 191, 201, 211, 221, 231, 241, 251, 261, 271, 281, 291, 301, 311, 321, 331, 341, 351, 361, 371, 381, 391, 401, 411, 421, 431, 441, 451, 461, 471, 481, 491, 501, 511, 521, 531, 541, 551, 561, 571, 581, 591, 601, 611, 621, 631, 641, 651, 661, 671, 681, 691, 701, 711, 721, 731, 741, 751, 761, 771, 781, 791, 801, 811, 821, 831, 841, 851, 861, 871, 881, 891, 901, 911, 921, 931, 941, 951, 961, 971, 981, 991, 1001, 1011, 1021, 1031, 1041, 1051, 1061, 1071, 1081, 1091, 1101, 1111, 1121, 1131, 1141, 1151, 1161, 1171, 1181, 1191, 1201, 1211, 1221, 1231]","1078","1920","[960, 960, 960, 960, 960, 960, 960, 960, 960, 960, 960, 960, 960, 960, 960, 960, 960, 960, 962, 964, 967, 977, 984, 989, 996, 1009, 1014, 1019, 1026, 1039, 1045, 1050, 1054, 1064, 1069, 1072, 1086, 1114, 1126, 1138, 1156, 1187, 1201, 1218, 1230, 1258, 1269, 1280, 1289, 1307, 1317, 1330, 1342, 1372, 1388, 1399, 1416, 1450, 1468, 1486, 1504, 1550, 1571, 1594, 1618, 1662, 1683, 1706, 1726, 1761, 1784, 1803, 1824, 1853, 1861, 1868, 1875, 1885, 1889, 1893, 1895, 1900, 1902, 1903, 1906, 1908, 1908, 1910, 1910, 1911, 1911, 1912, 1912, 1912, 1912, 1912, 1912, 1912, 1912, 1912, 1912, 1912, 1912, 1912, 1912, 1912, 1912, 1912, 1912, 1912, 1912, 1912, 1912, 1912, 1912, 1912, 1912, 1912, 1912, 1912, 1912, 1912, 1912]","[1010, 1010, 1010, 1010, 1010, 1010, 1010, 1010, 1010, 1010, 1010, 1010, 1010, 1010, 1010, 1010, 1010, 1010, 1009, 1007, 1003, 994, 989, 985, 980, 969, 964, 959, 954, 943, 937, 932, 928, 917, 912, 906, 897, 876, 867, 859, 846, 825, 814, 803, 793, 772, 763, 753, 745, 723, 711, 698, 683, 647, 631, 619, 600, 566, 551, 536, 522, 482, 464, 444, 422, 387, 367, 347, 330, 295, 277, 259, 239, 204, 194, 183, 173, 156, 148, 142, 137, 128, 123, 119, 114, 107, 103, 99, 96, 89, 85, 82, 79, 76, 73, 72, 71, 70, 69, 68, 68, 68, 68, 68, 68, 68, 68, 68, 68, 68, 68, 68, 68, 68, 68, 68, 68, 68, 68, 68, 68, 68, 68]"
CHF,TotCHF,final_payoff,sum
"15","35","[10, 5, 10, 5]","30"
