Condition,PromiseStage,Stage,accuracy,avg_rt,count_decision_sequence,count_loop1,count_trial_sequence,font_size,height,init_time,payoff,response,rt,subject_nr,synth_backend,tTrajectory,time_experiment,width,xTrajectory,yTrajectory
"Promise","Wie oft werden Sie die Hälfte zurückgeben?","Promise","1","undefined","NA","0","0","60","1080","331","NA","1","1608","0","legacy","[11, 21, 31, 41, 51, 61, 71, 81, 91, 101, 111, 121, 131, 141, 151, 161, 171, 181, 191, 201, 211, 221, 231, 241, 251, 261, 271, 281, 291, 301, 311, 321, 331, 341, 351, 361, 371, 381, 391, 401, 411, 421, 431, 441, 451, 461, 471, 481, 491, 501, 511, 521, 531, 541, 551, 561, 571, 581, 591, 601, 611, 621, 631, 641, 651, 661, 671, 681, 691, 701, 711, 721, 731, 741, 751, 761, 771, 781, 791, 801, 811, 821, 831, 841, 851, 861, 871, 881, 891, 901, 911, 921, 931, 941, 951, 961, 971, 981, 991, 1001, 1011, 1021, 1031, 1041, 1051, 1061, 1071, 1081, 1091, 1101, 1111, 1121, 1131, 1141, 1151, 1161, 1171, 1181, 1191, 1201, 1211, 1221, 1231, 1241, 1251, 1261, 1271, 1281, 1291, 1301, 1311, 1321, 1331, 1341, 1351, 1361, 1371, 1381, 1391, 1401, 1411, 1421, 1431, 1441, 1451, 1461, 1471, 1481, 1491, 1501, 1511, 1521, 1531, 1541, 1551, 1561, 1571, 1581, 1591, 1601]","1097","1920","[960, 960, 960, 960, 960, 960, 960, 960, 960, 960, 960, 960, 960, 960, 960, 960, 960, 960, 960, 960, 960, 960, 960, 960, 960, 960, 962, 968, 971, 975, 979, 991, 997, 1006, 1015, 1035, 1042, 1052, 1061, 1079, 1086, 1092, 1102, 1124, 1133, 1139, 1144, 1152, 1157, 1159, 1163, 1171, 1173, 1178, 1181, 1187, 1192, 1196, 1199, 1208, 1214, 1218, 1226, 1237, 1244, 1252, 1258, 1270, 1275, 1283, 1288, 1298, 1305, 1313, 1323, 1342, 1349, 1356, 1364, 1376, 1381, 1386, 1392, 1404, 1409, 1415, 1423, 1436, 1441, 1447, 1454, 1466, 1471, 1476, 1482, 1491, 1498, 1503, 1510, 1525, 1533, 1541, 1550, 1565, 1573, 1578, 1587, 1599, 1604, 1608, 1612, 1618, 1621, 1626, 1630, 1642, 1646, 1651, 1655, 1667, 1670, 1676, 1681, 1688, 1691, 1695, 1699, 1706, 1708, 1711, 1715, 1721, 1724, 1729, 1731, 1735, 1736, 1736, 1737, 1737, 1737, 1737, 1737, 1738, 1738, 1738, 1738, 1738, 1738, 1738, 1739, 1739, 1739, 1739, 1739, 1739, 1739, 1739, 1739, 1739]","[1010, 1010, 1010, 1010, 1010, 1010, 1010, 1010, 1010, 1010, 1010, 1010, 1010, 1010, 1010, 1010, 1010, 1010, 1010, 1010, 1010, 1010, 1010, 1008, 1007, 1004, 1002, 991, 986, 979, 971, 948, 930, 912, 896, 861, 850, 834, 818, 792, 782, 772, 760, 719, 706, 695, 689, 677, 671, 667, 662, 654, 651, 645, 643, 634, 629, 625, 623, 616, 611, 606, 598, 586, 577, 568, 560, 549, 544, 536, 531, 516, 507, 496, 482, 457, 445, 435, 427, 413, 407, 400, 392, 374, 366, 358, 346, 333, 326, 320, 314, 303, 297, 291, 284, 273, 267, 263, 257, 248, 242, 238, 233, 222, 216, 213, 208, 198, 196, 194, 191, 189, 186, 183, 180, 171, 169, 166, 162, 154, 151, 147, 143, 139, 136, 132, 130, 123, 121, 119, 117, 113, 111, 108, 107, 105, 104, 103, 103, 103, 103, 103, 103, 102, 102, 102, 102, 102, 102, 102, 101, 101, 101, 101, 101, 101, 101, 101, 101, 101]"
Cond,DecisionB,Stage,accuracy,avg_rt,count_decision_sequence,count_loop1,count_trial_sequence,font_size,height,init_time,payoff,response,rt,subject_nr,synth_backend,tTrajectory,time_experiment,width,xTrajectory,yTrajectory
"Trust","Teilnehmer A hat Ihnen 2 Punkte übermittelt.","Payback","1","undefined","0","0","0","60","1080","381","5","1","1670","0","legacy","[11, 21, 31, 41, 51, 61, 71, 81, 91, 101, 111, 121, 131, 141, 151, 161, 171, 181, 191, 201, 211, 221, 231, 241, 251, 261, 271, 281, 291, 301, 311, 321, 331, 341, 351, 361, 371, 381, 391, 401, 411, 421, 431, 441, 451, 461, 471, 481, 491, 501, 511, 521, 531, 541, 551, 561, 571, 581, 591, 601, 611, 621, 631, 641, 651, 661, 671, 681, 691, 701, 711, 721, 731, 741, 751, 761, 771, 781, 791, 801, 811, 821, 831, 841, 851, 861, 871, 881, 891, 901, 911, 921, 931, 941, 951, 961, 971, 981, 991, 1001, 1011, 1021, 1031, 1041, 1051, 1061, 1071, 1081, 1091, 1101, 1111, 1121, 1131, 1141, 1151, 1161, 1171, 1181, 1191, 1201, 1211, 1221, 1231, 1241, 1251, 1261, 1271, 1281, 1291, 1301, 1311, 1321, 1331, 1341, 1351, 1361, 1371, 1381, 1391, 1401, 1411, 1421, 1431, 1441, 1451, 1461, 1471, 1481, 1491, 1501, 1511, 1521, 1531, 1541, 1551, 1561, 1571, 1581, 1591, 1601, 1611, 1621, 1631, 1641, 1651, 1661]","1097","1920","[960, 960, 960, 960, 960, 960, 960, 960, 960, 960, 960, 960, 960, 960, 960, 960, 960, 960, 960, 960, 960, 960, 960, 961, 962, 962, 963, 963, 963, 965, 965, 966, 968, 970, 978, 981, 984, 988, 995, 1000, 1008, 1026, 1061, 1076, 1096, 1117, 1157, 1179, 1198, 1212, 1228, 1235, 1243, 1257, 1278, 1285, 1293, 1300, 1317, 1322, 1329, 1337, 1349, 1357, 1360, 1367, 1382, 1392, 1403, 1410, 1429, 1438, 1447, 1457, 1475, 1483, 1493, 1500, 1519, 1529, 1539, 1547, 1569, 1579, 1585, 1595, 1612, 1620, 1625, 1633, 1643, 1649, 1653, 1658, 1670, 1675, 1679, 1682, 1690, 1693, 1695, 1697, 1700, 1703, 1705, 1706, 1710, 1716, 1717, 1721, 1727, 1733, 1735, 1740, 1748, 1750, 1754, 1757, 1762, 1764, 1769, 1771, 1777, 1778, 1779, 1780, 1783, 1785, 1785, 1785, 1786, 1788, 1788, 1788, 1788, 1788, 1788, 1788, 1788, 1788, 1788, 1788, 1788, 1788, 1788, 1788, 1788, 1788, 1788, 1788, 1788, 1788, 1788, 1788, 1788, 1788, 1788, 1788, 1788, 1788, 1788, 1788, 1788, 1788, 1788, 1788]","[1010, 1010, 1010, 1010, 1010, 1010, 1010, 1010, 1010, 1010, 1010, 1010, 1010, 1010, 1010, 1010, 1010, 1010, 1010, 1010, 1010, 1010, 1010, 1009, 1009, 1009, 1006, 1004, 1003, 1001, 999, 997, 993, 988, 970, 960, 949, 936, 909, 895, 872, 840, 782, 755, 724, 684, 618, 584, 559, 539, 512, 501, 487, 465, 436, 425, 416, 406, 385, 379, 371, 362, 346, 337, 333, 325, 313, 304, 296, 291, 281, 277, 274, 269, 259, 254, 248, 244, 236, 230, 225, 220, 210, 207, 204, 200, 189, 185, 182, 177, 172, 168, 167, 163, 157, 154, 152, 149, 145, 144, 143, 141, 140, 137, 136, 135, 132, 128, 127, 124, 120, 117, 115, 112, 106, 104, 102, 99, 95, 93, 89, 88, 83, 82, 81, 79, 78, 76, 76, 75, 75, 74, 73, 73, 73, 73, 73, 73, 73, 73, 73, 73, 73, 73, 73, 73, 73, 73, 73, 73, 73, 73, 73, 73, 73, 73, 73, 73, 73, 73, 73, 73, 73, 73, 73, 73]"
"Trust","Teilnehmer A hat Ihnen 2 Punkte übermittelt.","Payback","1","undefined","1","0","0","60","1080","381","5","1","1461","0","legacy","[11, 21, 31, 41, 51, 61, 71, 81, 91, 101, 111, 121, 131, 141, 151, 161, 171, 181, 191, 201, 211, 221, 231, 241, 251, 261, 271, 281, 291, 301, 311, 321, 331, 341, 351, 361, 371, 381, 391, 401, 411, 421, 431, 441, 451, 461, 471, 481, 491, 501, 511, 521, 531, 541, 551, 561, 571, 581, 591, 601, 611, 621, 631, 641, 651, 661, 671, 681, 691, 701, 711, 721, 731, 741, 751, 761, 771, 781, 791, 801, 811, 821, 831, 841, 851, 861, 871, 881, 891, 901, 911, 921, 931, 941, 951, 961, 971, 981, 991, 1001, 1011, 1021, 1031, 1041, 1051, 1061, 1071, 1081, 1091, 1101, 1111, 1121, 1131, 1141, 1151, 1161, 1171, 1181, 1191, 1201, 1211, 1221, 1231, 1241, 1251, 1261, 1271, 1281, 1291, 1301, 1311, 1321, 1331, 1341, 1351, 1361, 1371, 1381, 1391, 1401, 1411, 1421, 1431, 1441, 1451, 1461]","1097","1920","[960, 960, 960, 960, 960, 960, 960, 960, 960, 960, 960, 960, 960, 960, 960, 960, 960, 960, 960, 960, 960, 960, 960, 960, 960, 960, 961, 963, 963, 965, 970, 972, 974, 978, 985, 989, 994, 1000, 1016, 1026, 1037, 1044, 1064, 1073, 1079, 1088, 1097, 1103, 1109, 1116, 1129, 1136, 1142, 1149, 1168, 1181, 1197, 1214, 1242, 1254, 1270, 1283, 1319, 1332, 1340, 1352, 1369, 1376, 1381, 1390, 1400, 1405, 1409, 1415, 1423, 1427, 1433, 1440, 1452, 1458, 1467, 1477, 1498, 1510, 1520, 1529, 1552, 1563, 1576, 1587, 1608, 1617, 1626, 1634, 1651, 1658, 1667, 1672, 1686, 1690, 1697, 1701, 1711, 1718, 1723, 1728, 1739, 1744, 1748, 1753, 1758, 1758, 1760, 1761, 1765, 1766, 1767, 1769, 1773, 1774, 1774, 1776, 1776, 1776, 1776, 1776, 1776, 1776, 1776, 1776, 1776, 1776, 1776, 1776, 1776, 1776, 1776, 1776, 1776, 1776, 1776, 1776, 1776, 1776, 1776, 1776]","[1010, 1010, 1010, 1010, 1010, 1010, 1010, 1010, 1010, 1010, 1010, 1010, 1010, 1010, 1010, 1010, 1010, 1010, 1010, 1010, 1010, 1010, 1010, 1010, 1010, 1010, 1008, 1006, 1002, 998, 987, 983, 978, 972, 959, 950, 941, 930, 901, 886, 872, 859, 828, 810, 798, 783, 765, 754, 743, 732, 710, 697, 684, 673, 641, 621, 599, 574, 536, 520, 497, 484, 445, 427, 416, 403, 385, 378, 372, 364, 353, 348, 346, 340, 334, 330, 326, 322, 314, 310, 304, 299, 286, 280, 275, 269, 255, 248, 241, 236, 223, 218, 213, 208, 197, 190, 185, 180, 168, 164, 159, 155, 147, 142, 138, 134, 124, 120, 117, 114, 110, 109, 107, 105, 101, 99, 98, 95, 93, 93, 92, 91, 91, 91, 91, 91, 91, 91, 91, 91, 91, 91, 91, 91, 91, 91, 91, 91, 91, 91, 91, 91, 91, 91, 91, 91]"
"NoTrust","Teilnehmer A hat Ihnen keine 2 Punkte übermittelt.","Payback","1","undefined","2","0","0","60","1080","381","0","1","1461","0","legacy","[11, 21, 31, 41, 51, 61, 71, 81, 91, 101, 111, 121, 131, 141, 151, 161, 171, 181, 191, 201, 211, 221, 231, 241, 251, 261, 271, 281, 291, 301, 311, 321, 331, 341, 351, 361, 371, 381, 391, 401, 411, 421, 431, 441, 451, 461, 471, 481, 491, 501, 511, 521, 531, 541, 551, 561, 571, 581, 591, 601, 611, 621, 631, 641, 651, 661, 671, 681, 691, 701, 711, 721, 731, 741, 751, 761, 771, 781, 791, 801, 811, 821, 831, 841, 851, 861, 871, 881, 891, 901, 911, 921, 931, 941, 951, 961, 971, 981, 991, 1001, 1011, 1021, 1031, 1041, 1051, 1061, 1071, 1081, 1091, 1101, 1111, 1121, 1131, 1141, 1151, 1161, 1171, 1181, 1191, 1201, 1211, 1221, 1231, 1241, 1251, 1261, 1271, 1281, 1291, 1301, 1311, 1321, 1331, 1341, 1351, 1361, 1371, 1381, 1391, 1401, 1411, 1421, 1431, 1441, 1451, 1461]","1097","1920","[960, 960, 960, 960, 960, 960, 960, 960, 960, 960, 960, 960, 960, 960, 960, 960, 960, 960, 960, 960, 960, 960, 960, 960, 960, 960, 961, 963, 963, 965, 970, 972, 974, 978, 985, 989, 994, 1000, 1016, 1026, 1037, 1044, 1064, 1073, 1079, 1088, 1097, 1103, 1109, 1116, 1129, 1136, 1142, 1149, 1168, 1181, 1197, 1214, 1242, 1254, 1270, 1283, 1319, 1332, 1340, 1352, 1369, 1376, 1381, 1390, 1400, 1405, 1409, 1415, 1423, 1427, 1433, 1440, 1452, 1458, 1467, 1477, 1498, 1510, 1520, 1529, 1552, 1563, 1576, 1587, 1608, 1617, 1626, 1634, 1651, 1658, 1667, 1672, 1686, 1690, 1697, 1701, 1711, 1718, 1723, 1728, 1739, 1744, 1748, 1753, 1758, 1758, 1760, 1761, 1765, 1766, 1767, 1769, 1773, 1774, 1774, 1776, 1776, 1776, 1776, 1776, 1776, 1776, 1776, 1776, 1776, 1776, 1776, 1776, 1776, 1776, 1776, 1776, 1776, 1776, 1776, 1776, 1776, 1776, 1776, 1776]","[1010, 1010, 1010, 1010, 1010, 1010, 1010, 1010, 1010, 1010, 1010, 1010, 1010, 1010, 1010, 1010, 1010, 1010, 1010, 1010, 1010, 1010, 1010, 1010, 1010, 1010, 1008, 1006, 1002, 998, 987, 983, 978, 972, 959, 950, 941, 930, 901, 886, 872, 859, 828, 810, 798, 783, 765, 754, 743, 732, 710, 697, 684, 673, 641, 621, 599, 574, 536, 520, 497, 484, 445, 427, 416, 403, 385, 378, 372, 364, 353, 348, 346, 340, 334, 330, 326, 322, 314, 310, 304, 299, 286, 280, 275, 269, 255, 248, 241, 236, 223, 218, 213, 208, 197, 190, 185, 180, 168, 164, 159, 155, 147, 142, 138, 134, 124, 120, 117, 114, 110, 109, 107, 105, 101, 99, 98, 95, 93, 93, 92, 91, 91, 91, 91, 91, 91, 91, 91, 91, 91, 91, 91, 91, 91, 91, 91, 91, 91, 91, 91, 91, 91, 91, 91, 91]"
"Promise","Wie oft werden Sie die Hälfte zurückgeben?","Promise","1","undefined","2","0","1","60","1080","391","0","1","1400","0","legacy","[11, 21, 31, 41, 51, 61, 71, 81, 91, 101, 111, 121, 131, 141, 151, 161, 171, 181, 191, 201, 211, 221, 231, 241, 251, 261, 271, 281, 291, 301, 311, 321, 331, 341, 351, 361, 371, 381, 391, 401, 411, 421, 431, 441, 451, 461, 471, 481, 491, 501, 511, 521, 531, 541, 551, 561, 571, 581, 591, 601, 611, 621, 631, 641, 651, 661, 671, 681, 691, 701, 711, 721, 731, 741, 751, 761, 771, 781, 791, 801, 811, 821, 831, 841, 851, 861, 871, 881, 891, 901, 911, 921, 931, 941, 951, 961, 971, 981, 991, 1001, 1011, 1021, 1031, 1041, 1051, 1061, 1071, 1081, 1091, 1101, 1111, 1121, 1131, 1141, 1151, 1161, 1171, 1181, 1191, 1201, 1211, 1221, 1231, 1241, 1251, 1261, 1271, 1281, 1291, 1301, 1311, 1321, 1331, 1341, 1351, 1361, 1371, 1381, 1391]","1097","1920","[960, 960, 960, 960, 960, 960, 960, 960, 960, 960, 960, 960, 960, 960, 960, 960, 960, 960, 960, 960, 960, 960, 960, 960, 960, 960, 961, 965, 967, 968, 970, 972, 974, 975, 977, 983, 985, 990, 995, 1007, 1017, 1024, 1032, 1046, 1053, 1059, 1064, 1075, 1080, 1086, 1091, 1102, 1109, 1117, 1123, 1136, 1143, 1150, 1155, 1166, 1172, 1179, 1186, 1207, 1218, 1232, 1243, 1262, 1273, 1280, 1289, 1302, 1310, 1317, 1325, 1341, 1349, 1357, 1367, 1382, 1391, 1398, 1405, 1423, 1433, 1446, 1455, 1473, 1483, 1493, 1504, 1522, 1532, 1539, 1547, 1561, 1567, 1572, 1580, 1589, 1597, 1602, 1608, 1623, 1629, 1635, 1643, 1648, 1654, 1657, 1661, 1669, 1673, 1676, 1681, 1689, 1694, 1700, 1703, 1710, 1714, 1716, 1719, 1723, 1725, 1726, 1727, 1730, 1731, 1732, 1733, 1735, 1736, 1737, 1737, 1737, 1737, 1737, 1737]","[1010, 1010, 1010, 1010, 1010, 1010, 1010, 1010, 1010, 1010, 1010, 1010, 1010, 1010, 1010, 1010, 1010, 1010, 1010, 1010, 1010, 1010, 1010, 1010, 1010, 1010, 1009, 1004, 1001, 998, 995, 989, 984, 978, 972, 958, 952, 943, 934, 918, 904, 895, 885, 866, 855, 847, 840, 822, 814, 807, 797, 778, 767, 755, 746, 727, 717, 709, 701, 683, 673, 662, 649, 613, 596, 577, 560, 534, 521, 511, 501, 482, 474, 465, 455, 441, 432, 423, 412, 397, 388, 379, 370, 354, 344, 332, 323, 305, 295, 287, 278, 263, 255, 248, 243, 232, 227, 223, 218, 211, 204, 200, 195, 185, 180, 176, 172, 166, 162, 160, 157, 152, 149, 148, 144, 138, 134, 130, 128, 123, 121, 119, 117, 115, 114, 113, 112, 110, 109, 108, 108, 106, 106, 105, 105, 105, 105, 105, 105]"
"Trust","Teilnehmer A hat Ihnen 2 Punkte übermittelt.","Payback","1","undefined","3","0","1","60","1080","371","5","1","1661","0","legacy","[11, 21, 31, 41, 51, 61, 71, 81, 91, 101, 111, 121, 131, 141, 151, 161, 171, 181, 191, 201, 211, 221, 231, 241, 251, 261, 271, 281, 291, 301, 311, 321, 331, 341, 351, 361, 371, 381, 391, 401, 411, 421, 431, 441, 451, 461, 471, 481, 491, 501, 511, 521, 531, 541, 551, 561, 571, 581, 591, 601, 611, 621, 631, 641, 651, 661, 671, 681, 691, 701, 711, 721, 731, 741, 751, 761, 771, 781, 791, 801, 811, 821, 831, 841, 851, 861, 871, 881, 891, 901, 911, 921, 931, 941, 951, 961, 971, 981, 991, 1001, 1011, 1021, 1031, 1041, 1051, 1061, 1071, 1081, 1091, 1101, 1111, 1121, 1131, 1141, 1151, 1161, 1171, 1181, 1191, 1201, 1211, 1221, 1231, 1241, 1251, 1261, 1271, 1281, 1291, 1301, 1311, 1321, 1331, 1341, 1351, 1361, 1371, 1381, 1391, 1401, 1411, 1421, 1431, 1441, 1451, 1461, 1471, 1481, 1491, 1501, 1511, 1521, 1531, 1541, 1551, 1561, 1571, 1581, 1591, 1601, 1611, 1621, 1631, 1641, 1651, 1661]","1097","1920","[960, 960, 960, 960, 960, 960, 960, 960, 960, 960, 960, 960, 960, 960, 960, 960, 960, 960, 960, 960, 960, 960, 960, 960, 960, 960, 960, 960, 960, 962, 964, 965, 967, 970, 973, 973, 975, 979, 983, 990, 997, 1010, 1015, 1021, 1026, 1036, 1041, 1046, 1048, 1055, 1058, 1062, 1066, 1072, 1074, 1077, 1081, 1088, 1092, 1096, 1100, 1108, 1113, 1118, 1124, 1135, 1141, 1148, 1158, 1173, 1182, 1189, 1197, 1215, 1229, 1236, 1246, 1261, 1270, 1279, 1286, 1303, 1311, 1321, 1329, 1347, 1355, 1365, 1372, 1391, 1396, 1404, 1413, 1425, 1431, 1439, 1445, 1461, 1468, 1472, 1480, 1493, 1498, 1506, 1513, 1525, 1535, 1543, 1551, 1566, 1573, 1581, 1586, 1602, 1610, 1617, 1623, 1638, 1643, 1648, 1655, 1659, 1671, 1676, 1680, 1686, 1693, 1697, 1702, 1703, 1707, 1710, 1712, 1713, 1717, 1720, 1721, 1724, 1728, 1730, 1731, 1731, 1732, 1734, 1734, 1735, 1737, 1738, 1738, 1739, 1741, 1741, 1742, 1742, 1742, 1742, 1742, 1742, 1742, 1742, 1742, 1742, 1742, 1742, 1742, 1742]","[1010, 1010, 1010, 1010, 1010, 1010, 1010, 1010, 1010, 1010, 1010, 1010, 1010, 1010, 1010, 1010, 1010, 1010, 1010, 1010, 1010, 1010, 1010, 1010, 1010, 1010, 1009, 1007, 1006, 1000, 994, 988, 982, 963, 951, 941, 932, 918, 905, 891, 877, 854, 844, 834, 825, 810, 804, 798, 794, 783, 778, 773, 767, 758, 752, 747, 741, 729, 723, 718, 711, 698, 690, 680, 669, 650, 640, 627, 613, 588, 574, 563, 551, 522, 500, 488, 475, 453, 443, 433, 422, 403, 395, 383, 378, 362, 355, 347, 340, 327, 323, 317, 312, 303, 298, 292, 288, 277, 272, 269, 263, 256, 253, 249, 245, 239, 233, 230, 227, 219, 216, 213, 211, 204, 198, 195, 191, 184, 181, 177, 174, 171, 162, 158, 155, 151, 146, 142, 138, 137, 133, 130, 129, 127, 122, 119, 116, 114, 108, 105, 105, 103, 102, 100, 100, 99, 97, 96, 95, 94, 93, 93, 92, 92, 92, 92, 92, 92, 92, 92, 92, 92, 92, 92, 92, 92]"
"Trust","Teilnehmer A hat Ihnen 2 Punkte übermittelt.","Payback","0","undefined","4","0","1","60","1080","401","10","2","1703","0","legacy","[11, 21, 31, 41, 51, 61, 71, 81, 91, 101, 111, 121, 131, 141, 151, 161, 171, 181, 191, 201, 211, 221, 231, 241, 251, 261, 271, 281, 291, 301, 311, 321, 331, 341, 351, 361, 371, 381, 391, 401, 411, 421, 431, 441, 451, 461, 471, 481, 491, 501, 511, 521, 531, 541, 551, 561, 571, 581, 591, 601, 611, 621, 631, 641, 651, 661, 671, 681, 691, 701, 711, 721, 731, 741, 751, 761, 771, 781, 791, 801, 811, 821, 831, 841, 851, 861, 871, 881, 891, 901, 911, 921, 931, 941, 951, 961, 971, 981, 991, 1001, 1011, 1021, 1031, 1041, 1051, 1061, 1071, 1081, 1091, 1101, 1111, 1121, 1131, 1141, 1151, 1161, 1171, 1181, 1191, 1201, 1211, 1221, 1231, 1241, 1251, 1261, 1271, 1281, 1291, 1301, 1311, 1321, 1331, 1341, 1351, 1361, 1371, 1381, 1391, 1401, 1411, 1421, 1431, 1441, 1451, 1461, 1471, 1481, 1491, 1501, 1511, 1521, 1531, 1541, 1551, 1561, 1571, 1581, 1591, 1601, 1611, 1621, 1631, 1641, 1651, 1661, 1671, 1681, 1691, 1701]","1097","1920","[960, 960, 960, 960, 960, 960, 960, 960, 960, 960, 960, 960, 960, 960, 960, 960, 960, 960, 960, 960, 960, 960, 960, 960, 960, 960, 960, 960, 960, 960, 960, 960, 960, 960, 960, 960, 960, 960, 960, 960, 958, 956, 954, 951, 951, 951, 951, 951, 948, 948, 946, 943, 941, 940, 938, 936, 932, 931, 930, 926, 925, 924, 920, 916, 914, 912, 908, 899, 896, 892, 889, 882, 879, 876, 872, 862, 857, 852, 845, 833, 826, 818, 810, 794, 786, 779, 771, 756, 749, 740, 730, 706, 689, 675, 661, 635, 621, 610, 601, 579, 567, 554, 542, 507, 493, 474, 456, 429, 419, 407, 399, 381, 372, 366, 361, 349, 343, 338, 333, 325, 320, 317, 312, 302, 297, 290, 282, 269, 260, 253, 244, 233, 228, 225, 220, 211, 206, 202, 199, 193, 191, 191, 190, 190, 190, 190, 190, 190, 190, 190, 190, 190, 190, 190, 190, 190, 190, 190, 190, 190, 190, 190, 190, 190, 190, 190, 190, 190, 190, 190]","[1010, 1010, 1010, 1010, 1010, 1010, 1010, 1010, 1010, 1010, 1010, 1010, 1010, 1010, 1010, 1010, 1010, 1010, 1010, 1010, 1010, 1010, 1010, 1010, 1010, 1010, 1010, 1010, 1010, 1010, 1010, 1007, 1005, 1001, 997, 986, 979, 971, 958, 930, 916, 904, 890, 862, 843, 826, 812, 785, 772, 757, 744, 721, 707, 695, 684, 661, 648, 638, 629, 610, 602, 595, 586, 571, 564, 554, 546, 531, 525, 518, 513, 502, 496, 490, 486, 475, 470, 466, 460, 449, 443, 435, 429, 417, 411, 406, 401, 390, 386, 380, 373, 355, 344, 335, 325, 306, 298, 290, 283, 267, 260, 251, 242, 220, 213, 201, 193, 182, 176, 170, 167, 157, 154, 152, 149, 144, 142, 140, 138, 134, 132, 130, 128, 125, 123, 118, 115, 109, 107, 103, 100, 95, 93, 92, 89, 87, 85, 85, 84, 81, 81, 81, 81, 81, 81, 81, 81, 81, 81, 81, 81, 81, 81, 81, 81, 81, 81, 81, 81, 81, 81, 81, 81, 81, 81, 81, 81, 81, 81, 81]"
"Trust","Teilnehmer A hat Ihnen 2 Punkte übermittelt.","Payback","0","undefined","5","0","1","60","1080","481","10","2","1733","0","legacy","[11, 21, 31, 41, 51, 61, 71, 81, 91, 101, 111, 121, 131, 141, 151, 161, 171, 181, 191, 201, 211, 221, 231, 241, 251, 261, 271, 281, 291, 301, 311, 321, 331, 341, 351, 361, 371, 381, 391, 401, 411, 421, 431, 441, 451, 461, 471, 481, 491, 501, 511, 521, 531, 541, 551, 561, 571, 581, 591, 601, 611, 621, 631, 641, 651, 661, 671, 681, 691, 701, 711, 721, 731, 741, 751, 761, 771, 781, 791, 801, 811, 821, 831, 841, 851, 861, 871, 881, 891, 901, 911, 921, 931, 941, 951, 961, 971, 981, 991, 1001, 1011, 1021, 1031, 1041, 1051, 1061, 1071, 1081, 1091, 1101, 1111, 1121, 1131, 1141, 1151, 1161, 1171, 1181, 1191, 1201, 1211, 1221, 1231, 1241, 1251, 1261, 1271, 1281, 1291, 1301, 1311, 1321, 1331, 1341, 1351, 1361, 1371, 1381, 1391, 1401, 1411, 1421, 1431, 1441, 1451, 1461, 1471, 1481, 1491, 1501, 1511, 1521, 1531, 1541, 1551, 1561, 1571, 1581, 1591, 1601, 1611, 1621, 1631, 1641, 1651, 1661, 1671, 1681, 1691, 1701, 1711, 1721, 1731]","1097","1920","[960, 960, 960, 960, 960, 960, 960, 960, 960, 960, 960, 960, 960, 960, 960, 960, 960, 960, 960, 960, 960, 960, 960, 960, 960, 960, 960, 960, 960, 960, 960, 960, 960, 960, 960, 960, 960, 960, 960, 960, 960, 960, 960, 960, 960, 960, 960, 960, 960, 960, 960, 960, 960, 960, 960, 960, 960, 960, 955, 952, 951, 949, 945, 943, 941, 939, 934, 933, 928, 926, 921, 917, 914, 911, 902, 898, 892, 886, 874, 866, 856, 846, 804, 779, 752, 723, 667, 641, 612, 591, 562, 552, 540, 534, 523, 519, 514, 510, 503, 500, 494, 487, 475, 470, 465, 461, 451, 446, 440, 432, 418, 412, 404, 395, 383, 377, 372, 367, 358, 353, 349, 343, 332, 326, 320, 315, 307, 302, 300, 295, 291, 287, 283, 278, 271, 269, 265, 263, 259, 257, 257, 255, 253, 252, 250, 250, 246, 245, 243, 243, 240, 240, 238, 238, 236, 235, 234, 233, 231, 230, 230, 228, 227, 227, 227, 227, 227, 227, 227, 227, 227, 227, 227]","[1010, 1010, 1010, 1010, 1010, 1010, 1010, 1010, 1010, 1010, 1010, 1010, 1010, 1010, 1010, 1010, 1010, 1010, 1010, 1010, 1010, 1010, 1010, 1010, 1010, 1010, 1010, 1010, 1010, 1010, 1010, 1010, 1010, 1010, 1010, 1010, 1010, 1009, 1007, 1005, 1002, 999, 988, 979, 968, 958, 940, 928, 919, 908, 887, 878, 868, 856, 818, 801, 779, 768, 735, 721, 707, 694, 666, 654, 641, 629, 604, 595, 583, 575, 555, 547, 538, 531, 512, 502, 494, 485, 468, 456, 444, 434, 405, 393, 377, 364, 334, 325, 311, 304, 289, 284, 278, 274, 268, 266, 263, 260, 256, 254, 250, 247, 241, 240, 237, 234, 229, 225, 221, 216, 209, 205, 201, 195, 189, 185, 181, 178, 170, 167, 165, 161, 154, 149, 146, 144, 139, 136, 135, 132, 130, 127, 125, 122, 118, 117, 116, 115, 113, 113, 112, 111, 110, 110, 109, 108, 108, 107, 107, 107, 105, 105, 105, 104, 104, 102, 102, 102, 102, 102, 102, 101, 101, 101, 101, 101, 101, 101, 101, 101, 101, 101, 101]"
"Promise","Wie oft werden Sie die Hälfte zurückgeben?","Promise","1","undefined","5","0","2","60","1080","401","10","1","1472","0","legacy","[11, 21, 31, 41, 51, 61, 71, 81, 91, 101, 111, 121, 131, 141, 151, 161, 171, 181, 191, 201, 211, 221, 231, 241, 251, 261, 271, 281, 291, 301, 311, 321, 331, 341, 351, 361, 371, 381, 391, 401, 411, 421, 431, 441, 451, 461, 471, 481, 491, 501, 511, 521, 531, 541, 551, 561, 571, 581, 591, 601, 611, 621, 631, 641, 651, 661, 671, 681, 691, 701, 711, 721, 731, 741, 751, 761, 771, 781, 791, 801, 811, 821, 831, 841, 851, 861, 871, 881, 891, 901, 911, 921, 931, 941, 951, 961, 971, 981, 991, 1001, 1011, 1021, 1031, 1041, 1051, 1061, 1071, 1081, 1091, 1101, 1111, 1121, 1131, 1141, 1151, 1161, 1171, 1181, 1191, 1201, 1211, 1221, 1231, 1241, 1251, 1261, 1271, 1281, 1291, 1301, 1311, 1321, 1331, 1341, 1351, 1361, 1371, 1381, 1391, 1401, 1411, 1421, 1431, 1441, 1451, 1461, 1471]","1097","1920","[960, 960, 960, 960, 960, 960, 960, 960, 960, 960, 960, 960, 960, 960, 960, 960, 960, 960, 960, 960, 960, 960, 960, 960, 960, 960, 960, 960, 960, 960, 960, 960, 960, 960, 960, 965, 967, 969, 973, 980, 986, 990, 993, 999, 1002, 1003, 1008, 1011, 1013, 1016, 1020, 1027, 1030, 1035, 1038, 1047, 1052, 1057, 1062, 1071, 1077, 1080, 1085, 1094, 1100, 1103, 1110, 1118, 1124, 1131, 1137, 1151, 1160, 1165, 1172, 1184, 1191, 1199, 1205, 1219, 1228, 1236, 1242, 1259, 1268, 1276, 1285, 1306, 1315, 1325, 1332, 1352, 1361, 1369, 1378, 1395, 1402, 1412, 1423, 1440, 1449, 1458, 1470, 1490, 1498, 1509, 1517, 1533, 1541, 1550, 1558, 1572, 1581, 1592, 1602, 1618, 1627, 1634, 1643, 1658, 1664, 1668, 1674, 1682, 1685, 1690, 1692, 1697, 1701, 1703, 1706, 1710, 1713, 1714, 1716, 1719, 1721, 1721, 1721, 1721, 1721, 1721, 1721, 1721, 1721, 1721, 1721]","[1010, 1010, 1010, 1010, 1010, 1010, 1010, 1010, 1010, 1010, 1010, 1010, 1010, 1010, 1010, 1010, 1010, 1010, 1010, 1010, 1010, 1010, 1010, 1010, 1010, 1010, 1010, 1010, 1010, 1010, 1008, 1003, 999, 996, 990, 976, 966, 959, 949, 921, 906, 894, 883, 865, 857, 852, 844, 834, 829, 823, 814, 797, 790, 781, 774, 755, 746, 736, 725, 704, 694, 684, 672, 655, 645, 638, 630, 611, 602, 592, 586, 566, 555, 545, 536, 519, 510, 501, 492, 475, 465, 456, 446, 428, 418, 409, 401, 384, 376, 367, 360, 344, 338, 331, 325, 312, 307, 300, 294, 280, 274, 267, 260, 245, 240, 234, 229, 215, 210, 202, 197, 184, 176, 168, 161, 149, 144, 138, 131, 121, 117, 113, 109, 103, 100, 97, 96, 92, 91, 90, 88, 86, 84, 84, 83, 82, 81, 81, 81, 81, 81, 81, 81, 81, 81, 81, 81]"
"NoTrust","Teilnehmer A hat Ihnen keine 2 Punkte übermittelt.","Payback","1","undefined","6","0","2","60","1080","401","0","1","1472","0","legacy","[11, 21, 31, 41, 51, 61, 71, 81, 91, 101, 111, 121, 131, 141, 151, 161, 171, 181, 191, 201, 211, 221, 231, 241, 251, 261, 271, 281, 291, 301, 311, 321, 331, 341, 351, 361, 371, 381, 391, 401, 411, 421, 431, 441, 451, 461, 471, 481, 491, 501, 511, 521, 531, 541, 551, 561, 571, 581, 591, 601, 611, 621, 631, 641, 651, 661, 671, 681, 691, 701, 711, 721, 731, 741, 751, 761, 771, 781, 791, 801, 811, 821, 831, 841, 851, 861, 871, 881, 891, 901, 911, 921, 931, 941, 951, 961, 971, 981, 991, 1001, 1011, 1021, 1031, 1041, 1051, 1061, 1071, 1081, 1091, 1101, 1111, 1121, 1131, 1141, 1151, 1161, 1171, 1181, 1191, 1201, 1211, 1221, 1231, 1241, 1251, 1261, 1271, 1281, 1291, 1301, 1311, 1321, 1331, 1341, 1351, 1361, 1371, 1381, 1391, 1401, 1411, 1421, 1431, 1441, 1451, 1461, 1471]","1097","1920","[960, 960, 960, 960, 960, 960, 960, 960, 960, 960, 960, 960, 960, 960, 960, 960, 960, 960, 960, 960, 960, 960, 960, 960, 960, 960, 960, 960, 960, 960, 960, 960, 960, 960, 960, 965, 967, 969, 973, 980, 986, 990, 993, 999, 1002, 1003, 1008, 1011, 1013, 1016, 1020, 1027, 1030, 1035, 1038, 1047, 1052, 1057, 1062, 1071, 1077, 1080, 1085, 1094, 1100, 1103, 1110, 1118, 1124, 1131, 1137, 1151, 1160, 1165, 1172, 1184, 1191, 1199, 1205, 1219, 1228, 1236, 1242, 1259, 1268, 1276, 1285, 1306, 1315, 1325, 1332, 1352, 1361, 1369, 1378, 1395, 1402, 1412, 1423, 1440, 1449, 1458, 1470, 1490, 1498, 1509, 1517, 1533, 1541, 1550, 1558, 1572, 1581, 1592, 1602, 1618, 1627, 1634, 1643, 1658, 1664, 1668, 1674, 1682, 1685, 1690, 1692, 1697, 1701, 1703, 1706, 1710, 1713, 1714, 1716, 1719, 1721, 1721, 1721, 1721, 1721, 1721, 1721, 1721, 1721, 1721, 1721]","[1010, 1010, 1010, 1010, 1010, 1010, 1010, 1010, 1010, 1010, 1010, 1010, 1010, 1010, 1010, 1010, 1010, 1010, 1010, 1010, 1010, 1010, 1010, 1010, 1010, 1010, 1010, 1010, 1010, 1010, 1008, 1003, 999, 996, 990, 976, 966, 959, 949, 921, 906, 894, 883, 865, 857, 852, 844, 834, 829, 823, 814, 797, 790, 781, 774, 755, 746, 736, 725, 704, 694, 684, 672, 655, 645, 638, 630, 611, 602, 592, 586, 566, 555, 545, 536, 519, 510, 501, 492, 475, 465, 456, 446, 428, 418, 409, 401, 384, 376, 367, 360, 344, 338, 331, 325, 312, 307, 300, 294, 280, 274, 267, 260, 245, 240, 234, 229, 215, 210, 202, 197, 184, 176, 168, 161, 149, 144, 138, 131, 121, 117, 113, 109, 103, 100, 97, 96, 92, 91, 90, 88, 86, 84, 84, 83, 82, 81, 81, 81, 81, 81, 81, 81, 81, 81, 81, 81]"
"Trust","Teilnehmer A hat Ihnen 2 Punkte übermittelt.","Payback","0","undefined","7","0","2","60","1080","441","10","2","2444","0","legacy","[11, 21, 31, 41, 51, 61, 71, 81, 91, 101, 111, 121, 131, 141, 151, 161, 171, 181, 191, 201, 211, 221, 231, 241, 251, 261, 271, 281, 291, 301, 311, 321, 331, 341, 351, 361, 371, 381, 391, 401, 411, 421, 431, 441, 451, 461, 471, 481, 491, 501, 511, 521, 531, 541, 551, 561, 571, 581, 591, 601, 611, 621, 631, 641, 651, 661, 671, 681, 691, 701, 711, 721, 731, 741, 751, 761, 771, 781, 791, 801, 811, 821, 831, 841, 851, 861, 871, 881, 891, 901, 911, 921, 931, 941, 951, 961, 971, 981, 991, 1001, 1011, 1021, 1031, 1041, 1051, 1061, 1071, 1081, 1091, 1101, 1111, 1121, 1131, 1141, 1151, 1161, 1171, 1181, 1191, 1201, 1211, 1221, 1231, 1241, 1251, 1261, 1271, 1281, 1291, 1301, 1311, 1321, 1331, 1341, 1351, 1361, 1371, 1381, 1391, 1401, 1411, 1421, 1431, 1441, 1451, 1461, 1471, 1481, 1491, 1501, 1511, 1521, 1531, 1541, 1551, 1561, 1571, 1581, 1591, 1601, 1611, 1621, 1631, 1641, 1651, 1661, 1671, 1681, 1691, 1701, 1711, 1721, 1731, 1741, 1751, 1761, 1771, 1781, 1791, 1801, 1811, 1821, 1831, 1841, 1851, 1861, 1871, 1881, 1891, 1901, 1911, 1921, 1931, 1941, 1951, 1961, 1971, 1981, 1991, 2001, 2011, 2021, 2031, 2041, 2051, 2061, 2071, 2081, 2091, 2101, 2111, 2121, 2131, 2141, 2151, 2161, 2171, 2181, 2191, 2201, 2211, 2221, 2231, 2241, 2251, 2261, 2271, 2281, 2291, 2301, 2311, 2321, 2331, 2341, 2351, 2361, 2371, 2381, 2391, 2401, 2411, 2421, 2431, 2441]","1097","1920","[960, 960, 960, 960, 960, 960, 960, 960, 960, 960, 960, 960, 960, 960, 960, 960, 960, 960, 960, 960, 960, 960, 960, 960, 960, 960, 960, 960, 960, 960, 960, 960, 960, 960, 960, 960, 962, 963, 963, 963, 963, 963, 963, 963, 963, 963, 963, 963, 963, 963, 963, 963, 963, 963, 963, 963, 963, 963, 963, 963, 963, 963, 963, 963, 963, 963, 963, 962, 959, 957, 955, 951, 948, 943, 940, 936, 932, 924, 921, 917, 911, 900, 893, 887, 881, 867, 859, 852, 845, 832, 827, 820, 810, 794, 785, 775, 764, 737, 724, 712, 695, 660, 647, 633, 614, 587, 570, 558, 544, 524, 515, 509, 503, 490, 484, 478, 473, 461, 456, 450, 443, 427, 421, 416, 409, 401, 395, 393, 386, 372, 363, 353, 345, 329, 322, 314, 306, 294, 287, 283, 277, 265, 261, 258, 254, 248, 245, 244, 243, 241, 240, 239, 238, 237, 236, 235, 234, 234, 233, 232, 231, 231, 231, 231, 231, 231, 231, 231, 231, 231, 231, 231, 231, 231, 231, 231, 231, 231, 231, 231, 231, 231, 231, 231, 231, 231, 231, 231, 231, 231, 231, 231, 231, 231, 231, 231, 231, 231, 231, 231, 231, 231, 231, 231, 231, 231, 231, 231, 231, 231, 231, 231, 231, 231, 231, 231, 231, 231, 231, 231, 231, 231, 231, 231, 231, 231, 231, 231, 231, 231, 231, 231, 231, 231, 231, 231, 231, 231, 231, 231, 231, 231, 231, 231]","[1010, 1010, 1010, 1010, 1010, 1010, 1010, 1010, 1010, 1010, 1010, 1010, 1010, 1010, 1010, 1010, 1010, 1010, 1010, 1010, 1010, 1010, 1010, 1010, 1010, 1010, 1010, 1010, 1010, 1010, 1010, 1010, 1010, 1010, 1010, 1010, 1008, 1001, 998, 992, 981, 962, 948, 935, 916, 887, 876, 861, 848, 823, 811, 801, 789, 765, 754, 744, 733, 713, 702, 691, 682, 663, 653, 641, 630, 610, 599, 588, 578, 560, 551, 541, 533, 514, 506, 498, 490, 474, 469, 463, 456, 444, 439, 431, 426, 414, 406, 401, 396, 385, 381, 377, 370, 362, 356, 351, 346, 334, 327, 321, 312, 291, 284, 276, 265, 249, 236, 226, 217, 201, 196, 190, 185, 176, 172, 168, 164, 155, 153, 150, 144, 138, 135, 133, 130, 126, 124, 123, 120, 114, 111, 108, 104, 99, 97, 95, 92, 88, 87, 87, 87, 84, 84, 83, 83, 82, 81, 81, 81, 81, 81, 81, 81, 81, 81, 81, 81, 81, 81, 81, 81, 81, 81, 81, 81, 81, 81, 81, 81, 81, 81, 81, 81, 81, 81, 81, 81, 81, 81, 81, 81, 81, 81, 81, 81, 81, 81, 81, 81, 81, 81, 81, 81, 81, 81, 81, 81, 81, 81, 81, 81, 81, 81, 81, 81, 81, 81, 81, 81, 81, 81, 81, 81, 81, 81, 81, 81, 81, 81, 81, 81, 81, 81, 81, 81, 81, 81, 81, 81, 81, 81, 81, 81, 81, 81, 81, 81, 81, 81, 81, 81, 81, 81, 81]"
"Trust","Teilnehmer A hat Ihnen 2 Punkte übermittelt.","Payback","1","undefined","8","0","2","60","1080","441","5","1","1468","0","legacy","[11, 21, 31, 41, 51, 61, 71, 81, 91, 101, 111, 121, 131, 141, 151, 161, 171, 181, 191, 201, 211, 221, 231, 241, 251, 261, 271, 281, 291, 301, 311, 321, 331, 341, 351, 361, 371, 381, 391, 401, 411, 421, 431, 441, 451, 461, 471, 481, 491, 501, 511, 521, 531, 541, 551, 561, 571, 581, 591, 601, 611, 621, 631, 641, 651, 661, 671, 681, 691, 701, 711, 721, 731, 741, 751, 761, 771, 781, 791, 801, 811, 821, 831, 841, 851, 861, 871, 881, 891, 901, 911, 921, 931, 941, 951, 961, 971, 981, 991, 1001, 1011, 1021, 1031, 1041, 1051, 1061, 1071, 1081, 1091, 1101, 1111, 1121, 1131, 1141, 1151, 1161, 1171, 1181, 1191, 1201, 1211, 1221, 1231, 1241, 1251, 1261, 1271, 1281, 1291, 1301, 1311, 1321, 1331, 1341, 1351, 1361, 1371, 1381, 1391, 1401, 1411, 1421, 1431, 1441, 1451, 1461]","1097","1920","[960, 960, 960, 960, 960, 960, 960, 960, 960, 960, 960, 960, 960, 960, 960, 960, 960, 960, 960, 960, 960, 960, 960, 960, 960, 960, 960, 959, 959, 959, 959, 959, 959, 959, 959, 959, 959, 959, 959, 960, 962, 966, 968, 972, 976, 984, 987, 989, 994, 1006, 1012, 1018, 1026, 1037, 1043, 1047, 1050, 1061, 1065, 1072, 1081, 1095, 1102, 1108, 1115, 1130, 1136, 1141, 1147, 1158, 1164, 1170, 1175, 1187, 1195, 1202, 1207, 1221, 1229, 1238, 1246, 1260, 1268, 1274, 1281, 1302, 1311, 1320, 1330, 1352, 1362, 1375, 1385, 1405, 1413, 1423, 1432, 1451, 1458, 1464, 1470, 1487, 1493, 1500, 1507, 1523, 1529, 1538, 1546, 1562, 1568, 1576, 1583, 1596, 1605, 1610, 1616, 1627, 1632, 1635, 1640, 1649, 1654, 1661, 1664, 1673, 1680, 1683, 1686, 1692, 1694, 1696, 1698, 1701, 1702, 1702, 1702, 1702, 1702, 1702, 1702, 1702, 1702, 1702, 1702, 1702]","[1010, 1010, 1010, 1010, 1010, 1010, 1010, 1010, 1010, 1010, 1010, 1010, 1010, 1010, 1010, 1010, 1010, 1010, 1010, 1010, 1010, 1010, 1010, 1010, 1010, 1009, 1008, 1007, 1006, 1004, 1002, 1002, 999, 995, 991, 986, 982, 974, 970, 964, 959, 947, 942, 934, 925, 903, 892, 879, 867, 838, 823, 808, 792, 766, 756, 746, 735, 711, 698, 687, 671, 648, 635, 625, 612, 589, 579, 570, 561, 542, 533, 525, 517, 501, 490, 484, 479, 462, 455, 444, 434, 418, 409, 402, 393, 377, 369, 362, 355, 334, 326, 315, 306, 288, 282, 273, 265, 249, 243, 238, 232, 221, 216, 211, 206, 194, 188, 183, 177, 165, 160, 155, 149, 140, 135, 131, 127, 120, 117, 115, 112, 105, 102, 97, 96, 90, 87, 85, 83, 79, 79, 78, 77, 75, 74, 74, 74, 74, 74, 74, 74, 74, 74, 74, 74, 74]"
"Promise","Wie oft werden Sie die Hälfte zurückgeben?","Promise","1","undefined","8","0","3","60","1080","461","5","1","1681","0","legacy","[11, 21, 31, 41, 51, 61, 71, 81, 91, 101, 111, 121, 131, 141, 151, 161, 171, 181, 191, 201, 211, 221, 231, 241, 251, 261, 271, 281, 291, 301, 311, 321, 331, 341, 351, 361, 371, 381, 391, 401, 411, 421, 431, 441, 451, 461, 471, 481, 491, 501, 511, 521, 531, 541, 551, 561, 571, 581, 591, 601, 611, 621, 631, 641, 651, 661, 671, 681, 691, 701, 711, 721, 731, 741, 751, 761, 771, 781, 791, 801, 811, 821, 831, 841, 851, 861, 871, 881, 891, 901, 911, 921, 931, 941, 951, 961, 971, 981, 991, 1001, 1011, 1021, 1031, 1041, 1051, 1061, 1071, 1081, 1091, 1101, 1111, 1121, 1131, 1141, 1151, 1161, 1171, 1181, 1191, 1201, 1211, 1221, 1231, 1241, 1251, 1261, 1271, 1281, 1291, 1301, 1311, 1321, 1331, 1341, 1351, 1361, 1371, 1381, 1391, 1401, 1411, 1421, 1431, 1441, 1451, 1461, 1471, 1481, 1491, 1501, 1511, 1521, 1531, 1541, 1551, 1561, 1571, 1581, 1591, 1601, 1611, 1621, 1631, 1641, 1651, 1661, 1671]","1097","1920","[960, 960, 960, 960, 960, 960, 960, 960, 960, 960, 960, 960, 960, 960, 960, 960, 960, 960, 960, 960, 960, 960, 960, 960, 960, 960, 960, 960, 960, 961, 961, 961, 963, 964, 964, 966, 971, 972, 975, 982, 986, 991, 994, 1001, 1003, 1005, 1007, 1013, 1015, 1018, 1022, 1032, 1036, 1039, 1045, 1055, 1060, 1064, 1067, 1077, 1082, 1088, 1094, 1110, 1120, 1125, 1131, 1143, 1150, 1157, 1164, 1177, 1186, 1191, 1199, 1213, 1222, 1230, 1239, 1257, 1266, 1276, 1285, 1307, 1315, 1323, 1332, 1349, 1357, 1369, 1377, 1392, 1400, 1409, 1417, 1442, 1459, 1474, 1486, 1505, 1513, 1520, 1526, 1536, 1541, 1545, 1548, 1559, 1563, 1568, 1572, 1581, 1585, 1590, 1594, 1605, 1611, 1618, 1624, 1635, 1639, 1641, 1646, 1651, 1655, 1657, 1660, 1666, 1669, 1676, 1679, 1687, 1692, 1694, 1699, 1705, 1706, 1707, 1707, 1708, 1708, 1708, 1708, 1708, 1708, 1708, 1708, 1708, 1708, 1708, 1708, 1708, 1708, 1708, 1708, 1708, 1708, 1708, 1708, 1708, 1708, 1708, 1708, 1708, 1708, 1708, 1708]","[1010, 1010, 1010, 1010, 1010, 1010, 1010, 1010, 1010, 1010, 1010, 1010, 1010, 1010, 1010, 1010, 1010, 1010, 1010, 1010, 1010, 1010, 1010, 1010, 1010, 1010, 1010, 1011, 1011, 1010, 1010, 1010, 1007, 1004, 1003, 1001, 994, 992, 989, 978, 972, 965, 959, 948, 944, 938, 933, 921, 914, 908, 900, 884, 874, 869, 861, 847, 838, 828, 818, 797, 787, 774, 758, 731, 714, 704, 693, 671, 658, 648, 637, 614, 600, 589, 578, 558, 546, 536, 527, 511, 503, 495, 488, 469, 462, 455, 448, 432, 426, 416, 410, 394, 386, 376, 365, 338, 320, 308, 297, 281, 273, 264, 258, 244, 239, 231, 227, 215, 210, 205, 199, 188, 183, 177, 173, 162, 155, 150, 145, 136, 132, 130, 126, 121, 118, 116, 113, 108, 106, 101, 99, 95, 92, 91, 88, 84, 84, 84, 83, 82, 82, 82, 82, 82, 82, 82, 82, 82, 82, 82, 82, 82, 82, 82, 82, 82, 82, 82, 82, 82, 82, 82, 82, 82, 82, 82, 82]"
"Trust","Teilnehmer A hat Ihnen 2 Punkte übermittelt.","Payback","1","undefined","9","0","3","60","1080","401","5","1","1484","0","legacy","[11, 21, 31, 41, 51, 61, 71, 81, 91, 101, 111, 121, 131, 141, 151, 161, 171, 181, 191, 201, 211, 221, 231, 241, 251, 261, 271, 281, 291, 301, 311, 321, 331, 341, 351, 361, 371, 381, 391, 401, 411, 421, 431, 441, 451, 461, 471, 481, 491, 501, 511, 521, 531, 541, 551, 561, 571, 581, 591, 601, 611, 621, 631, 641, 651, 661, 671, 681, 691, 701, 711, 721, 731, 741, 751, 761, 771, 781, 791, 801, 811, 821, 831, 841, 851, 861, 871, 881, 891, 901, 911, 921, 931, 941, 951, 961, 971, 981, 991, 1001, 1011, 1021, 1031, 1041, 1051, 1061, 1071, 1081, 1091, 1101, 1111, 1121, 1131, 1141, 1151, 1161, 1171, 1181, 1191, 1201, 1211, 1221, 1231, 1241, 1251, 1261, 1271, 1281, 1291, 1301, 1311, 1321, 1331, 1341, 1351, 1361, 1371, 1381, 1391, 1401, 1411, 1421, 1431, 1441, 1451, 1461, 1471, 1481]","1097","1920","[960, 960, 960, 960, 960, 960, 960, 960, 960, 960, 960, 960, 960, 960, 960, 960, 960, 960, 960, 960, 960, 960, 961, 961, 961, 963, 964, 965, 965, 967, 969, 971, 972, 976, 978, 981, 983, 991, 997, 1002, 1008, 1015, 1019, 1023, 1029, 1036, 1042, 1047, 1052, 1063, 1069, 1075, 1080, 1091, 1097, 1103, 1108, 1119, 1125, 1129, 1135, 1148, 1154, 1162, 1168, 1180, 1188, 1196, 1203, 1219, 1226, 1235, 1243, 1262, 1270, 1279, 1287, 1308, 1318, 1327, 1337, 1357, 1366, 1376, 1385, 1407, 1417, 1425, 1432, 1448, 1453, 1459, 1467, 1477, 1485, 1490, 1496, 1511, 1517, 1522, 1529, 1543, 1550, 1557, 1566, 1582, 1590, 1598, 1604, 1619, 1627, 1636, 1642, 1657, 1665, 1673, 1680, 1691, 1696, 1700, 1704, 1711, 1715, 1717, 1720, 1724, 1725, 1728, 1728, 1729, 1729, 1729, 1729, 1730, 1730, 1730, 1730, 1730, 1730, 1730, 1730, 1730, 1730, 1730, 1730, 1730, 1730, 1730]","[1010, 1010, 1010, 1010, 1010, 1010, 1010, 1010, 1010, 1010, 1010, 1010, 1010, 1010, 1010, 1010, 1010, 1010, 1010, 1010, 1010, 1010, 1010, 1009, 1008, 1005, 1003, 1003, 1001, 996, 992, 987, 985, 977, 973, 968, 964, 951, 941, 932, 924, 911, 905, 897, 889, 870, 861, 852, 845, 826, 816, 808, 798, 779, 769, 761, 752, 730, 720, 710, 701, 678, 667, 657, 645, 625, 615, 603, 595, 573, 563, 551, 539, 519, 508, 498, 490, 468, 458, 447, 436, 413, 404, 395, 386, 366, 356, 350, 343, 329, 324, 318, 311, 299, 292, 287, 282, 270, 266, 261, 256, 244, 236, 228, 222, 207, 201, 194, 189, 175, 167, 161, 154, 141, 135, 127, 123, 112, 108, 105, 101, 95, 91, 87, 85, 80, 78, 75, 75, 73, 73, 73, 73, 72, 72, 72, 72, 72, 72, 72, 72, 72, 72, 72, 72, 72, 72, 72]"
"Trust","Teilnehmer A hat Ihnen 2 Punkte übermittelt.","Payback","0","undefined","10","0","3","60","1080","601","10","2","2149","0","legacy","[11, 21, 31, 41, 51, 61, 71, 81, 91, 101, 111, 121, 131, 141, 151, 161, 171, 181, 191, 201, 211, 221, 231, 241, 251, 261, 271, 281, 291, 301, 311, 321, 331, 341, 351, 361, 371, 381, 391, 401, 411, 421, 431, 441, 451, 461, 471, 481, 491, 501, 511, 521, 531, 541, 551, 561, 571, 581, 591, 601, 611, 621, 631, 641, 651, 661, 671, 681, 691, 701, 711, 721, 731, 741, 751, 761, 771, 781, 791, 801, 811, 821, 831, 841, 851, 861, 871, 881, 891, 901, 911, 921, 931, 941, 951, 961, 971, 981, 991, 1001, 1011, 1021, 1031, 1041, 1051, 1061, 1071, 1081, 1091, 1101, 1111, 1121, 1131, 1141, 1151, 1161, 1171, 1181, 1191, 1201, 1211, 1221, 1231, 1241, 1251, 1261, 1271, 1281, 1291, 1301, 1311, 1321, 1331, 1341, 1351, 1361, 1371, 1381, 1391, 1401, 1411, 1421, 1431, 1441, 1451, 1461, 1471, 1481, 1491, 1501, 1511, 1521, 1531, 1541, 1551, 1561, 1571, 1581, 1591, 1601, 1611, 1621, 1631, 1641, 1651, 1661, 1671, 1681, 1691, 1701, 1711, 1721, 1731, 1741, 1751, 1761, 1771, 1781, 1791, 1801, 1811, 1821, 1831, 1841, 1851, 1861, 1871, 1881, 1891, 1901, 1911, 1921, 1931, 1941, 1951, 1961, 1971, 1981, 1991, 2001, 2011, 2021, 2031, 2041, 2051, 2061, 2071, 2081, 2091, 2101, 2111, 2121, 2131, 2141]","1097","1920","[960, 960, 960, 960, 960, 960, 960, 960, 960, 960, 960, 960, 960, 960, 960, 960, 960, 960, 960, 960, 960, 960, 960, 960, 960, 960, 960, 960, 960, 960, 960, 960, 960, 960, 960, 960, 960, 960, 960, 960, 960, 961, 961, 961, 961, 962, 962, 962, 962, 963, 963, 963, 963, 966, 966, 967, 967, 969, 969, 969, 969, 969, 969, 969, 969, 969, 969, 969, 969, 969, 969, 969, 969, 969, 969, 969, 969, 969, 969, 969, 969, 969, 969, 969, 969, 969, 969, 969, 969, 969, 969, 969, 969, 967, 963, 959, 956, 952, 941, 935, 929, 923, 906, 897, 889, 881, 861, 849, 839, 829, 806, 796, 784, 770, 746, 736, 722, 712, 688, 680, 671, 661, 644, 637, 629, 622, 611, 604, 597, 592, 579, 573, 565, 559, 546, 540, 531, 523, 510, 503, 491, 483, 467, 459, 453, 446, 432, 425, 418, 413, 401, 395, 387, 382, 367, 362, 356, 354, 346, 343, 339, 335, 328, 324, 319, 317, 310, 307, 304, 302, 296, 293, 291, 287, 280, 277, 275, 273, 269, 267, 265, 264, 259, 258, 256, 254, 249, 246, 244, 242, 237, 235, 233, 232, 230, 228, 228, 226, 224, 222, 222, 221, 221, 221, 221, 221, 219, 219, 219, 219, 219, 219, 219, 219]","[1010, 1010, 1010, 1010, 1010, 1010, 1010, 1010, 1010, 1010, 1010, 1010, 1010, 1010, 1010, 1010, 1010, 1010, 1010, 1010, 1010, 1010, 1010, 1010, 1010, 1010, 1010, 1010, 1010, 1010, 1010, 1010, 1010, 1010, 1010, 1010, 1010, 1010, 1010, 1010, 1010, 1009, 1009, 1008, 1007, 1004, 1003, 1002, 1000, 993, 991, 987, 984, 976, 970, 964, 960, 950, 944, 939, 933, 922, 915, 910, 903, 889, 881, 874, 866, 848, 838, 829, 818, 799, 789, 780, 772, 754, 744, 736, 728, 718, 703, 695, 685, 677, 666, 662, 656, 651, 643, 639, 635, 629, 617, 611, 606, 601, 589, 583, 579, 573, 562, 555, 549, 543, 532, 525, 520, 513, 500, 495, 485, 476, 456, 448, 438, 431, 412, 406, 400, 393, 381, 376, 371, 366, 358, 354, 350, 347, 340, 337, 331, 328, 321, 317, 313, 308, 302, 297, 291, 289, 280, 275, 272, 269, 263, 259, 255, 252, 245, 242, 237, 233, 222, 218, 214, 212, 205, 203, 199, 195, 190, 187, 184, 181, 177, 175, 172, 170, 165, 162, 159, 157, 150, 149, 147, 145, 141, 140, 138, 137, 133, 132, 131, 129, 125, 121, 120, 117, 112, 111, 109, 108, 107, 106, 105, 103, 102, 102, 101, 100, 100, 100, 100, 100, 100, 100, 100, 100, 100, 100, 100, 100]"
"Trust","Teilnehmer A hat Ihnen 2 Punkte übermittelt.","Payback","0","undefined","11","0","3","60","1080","731","10","2","2461","0","legacy","[11, 21, 31, 41, 51, 61, 71, 81, 91, 101, 111, 121, 131, 141, 151, 161, 171, 181, 191, 201, 211, 221, 231, 241, 251, 261, 271, 281, 291, 301, 311, 321, 331, 341, 351, 361, 371, 381, 391, 401, 411, 421, 431, 441, 451, 461, 471, 481, 491, 501, 511, 521, 531, 541, 551, 561, 571, 581, 591, 601, 611, 621, 631, 641, 651, 661, 671, 681, 691, 701, 711, 721, 731, 741, 751, 761, 771, 781, 791, 801, 811, 821, 831, 841, 851, 861, 871, 881, 891, 901, 911, 921, 931, 941, 951, 961, 971, 981, 991, 1001, 1011, 1021, 1031, 1041, 1051, 1061, 1071, 1081, 1091, 1101, 1111, 1121, 1131, 1141, 1151, 1161, 1171, 1181, 1191, 1201, 1211, 1221, 1231, 1241, 1251, 1261, 1271, 1281, 1291, 1301, 1311, 1321, 1331, 1341, 1351, 1361, 1371, 1381, 1391, 1401, 1411, 1421, 1431, 1441, 1451, 1461, 1471, 1481, 1491, 1501, 1511, 1521, 1531, 1541, 1551, 1561, 1571, 1581, 1591, 1601, 1611, 1621, 1631, 1641, 1651, 1661, 1671, 1681, 1691, 1701, 1711, 1721, 1731, 1741, 1751, 1761, 1771, 1781, 1791, 1801, 1811, 1821, 1831, 1841, 1851, 1861, 1871, 1881, 1891, 1901, 1911, 1921, 1931, 1941, 1951, 1961, 1971, 1981, 1991, 2001, 2011, 2021, 2031, 2041, 2051, 2061, 2071, 2081, 2091, 2101, 2111, 2121, 2131, 2141, 2151, 2161, 2171, 2181, 2191, 2201, 2211, 2221, 2231, 2241, 2251, 2261, 2271, 2281, 2291, 2301, 2311, 2321, 2331, 2341, 2351, 2361, 2371, 2381, 2391, 2401, 2411, 2421, 2431, 2441, 2451]","1097","1920","[960, 960, 960, 960, 960, 960, 960, 960, 960, 960, 960, 960, 960, 960, 960, 960, 960, 960, 960, 960, 960, 960, 960, 960, 960, 960, 960, 960, 960, 960, 960, 960, 960, 960, 960, 960, 960, 960, 960, 960, 960, 960, 960, 960, 960, 960, 960, 960, 960, 960, 960, 960, 960, 960, 960, 960, 960, 960, 960, 960, 960, 960, 960, 960, 960, 960, 960, 958, 957, 956, 955, 955, 953, 952, 950, 950, 948, 947, 945, 943, 943, 940, 937, 936, 934, 932, 928, 925, 923, 921, 917, 915, 913, 913, 907, 906, 902, 900, 894, 892, 890, 887, 882, 881, 878, 876, 872, 867, 864, 856, 852, 848, 844, 840, 834, 832, 828, 820, 817, 811, 806, 793, 787, 783, 777, 772, 758, 750, 742, 723, 714, 706, 697, 679, 670, 661, 650, 628, 616, 601, 591, 567, 555, 541, 531, 511, 499, 488, 479, 463, 455, 444, 438, 424, 416, 410, 404, 394, 389, 381, 376, 364, 357, 350, 341, 330, 325, 320, 317, 311, 309, 306, 304, 299, 295, 293, 290, 283, 279, 274, 271, 267, 266, 264, 264, 261, 260, 259, 258, 256, 255, 255, 254, 251, 251, 250, 248, 247, 245, 245, 245, 244, 244, 244, 244, 244, 244, 244, 244, 244, 244, 244, 244, 244, 244, 244, 244, 244, 244, 244, 244, 244, 244, 244, 244, 244, 244, 244, 244, 244, 244, 244, 244, 244, 244, 244, 244, 244, 244, 244, 244, 244, 244, 244, 244]","[1010, 1010, 1010, 1010, 1010, 1010, 1010, 1010, 1010, 1010, 1010, 1010, 1010, 1010, 1010, 1010, 1010, 1010, 1010, 1010, 1010, 1010, 1010, 1010, 1010, 1010, 1010, 1010, 1010, 1010, 1010, 1010, 1010, 1010, 1010, 1010, 1010, 1010, 1010, 1010, 1010, 1010, 1010, 1010, 1010, 1010, 1010, 1010, 1010, 1010, 1010, 1010, 1010, 1010, 1010, 1010, 1010, 1010, 1006, 1004, 1001, 998, 992, 991, 988, 984, 976, 972, 966, 960, 949, 943, 936, 928, 916, 911, 905, 899, 889, 883, 879, 871, 861, 854, 847, 841, 829, 819, 811, 805, 793, 787, 780, 776, 760, 754, 747, 739, 726, 721, 716, 709, 699, 693, 686, 680, 664, 655, 648, 629, 620, 611, 602, 592, 575, 567, 557, 533, 522, 509, 496, 470, 462, 453, 443, 434, 412, 401, 389, 362, 350, 338, 327, 305, 294, 285, 277, 258, 246, 234, 227, 208, 199, 190, 182, 167, 160, 154, 149, 141, 136, 132, 130, 124, 120, 118, 115, 111, 109, 106, 104, 101, 99, 97, 95, 94, 94, 92, 91, 91, 90, 90, 89, 89, 88, 88, 88, 88, 88, 87, 87, 87, 87, 87, 87, 87, 87, 87, 87, 87, 87, 87, 87, 87, 87, 87, 87, 87, 87, 87, 87, 87, 87, 87, 87, 87, 87, 87, 87, 87, 87, 87, 87, 87, 87, 87, 87, 87, 87, 87, 87, 87, 87, 87, 87, 87, 87, 87, 87, 87, 87, 87, 87, 87, 87, 87, 87, 87, 87, 87, 87, 87, 87, 87, 87]"
"Promise","Wie oft werden Sie die Hälfte zurückgeben?","Promise","1","undefined","11","0","4","60","1080","671","10","1","2040","0","legacy","[11, 21, 31, 41, 51, 61, 71, 81, 91, 101, 111, 121, 131, 141, 151, 161, 171, 181, 191, 201, 211, 221, 231, 241, 251, 261, 271, 281, 291, 301, 311, 321, 331, 341, 351, 361, 371, 381, 391, 401, 411, 421, 431, 441, 451, 461, 471, 481, 491, 501, 511, 521, 531, 541, 551, 561, 571, 581, 591, 601, 611, 621, 631, 641, 651, 661, 671, 681, 691, 701, 711, 721, 731, 741, 751, 761, 771, 781, 791, 801, 811, 821, 831, 841, 851, 861, 871, 881, 891, 901, 911, 921, 931, 941, 951, 961, 971, 981, 991, 1001, 1011, 1021, 1031, 1041, 1051, 1061, 1071, 1081, 1091, 1101, 1111, 1121, 1131, 1141, 1151, 1161, 1171, 1181, 1191, 1201, 1211, 1221, 1231, 1241, 1251, 1261, 1271, 1281, 1291, 1301, 1311, 1321, 1331, 1341, 1351, 1361, 1371, 1381, 1391, 1401, 1411, 1421, 1431, 1441, 1451, 1461, 1471, 1481, 1491, 1501, 1511, 1521, 1531, 1541, 1551, 1561, 1571, 1581, 1591, 1601, 1611, 1621, 1631, 1641, 1651, 1661, 1671, 1681, 1691, 1701, 1711, 1721, 1731, 1741, 1751, 1761, 1771, 1781, 1791, 1801, 1811, 1821, 1831, 1841, 1851, 1861, 1871, 1881, 1891, 1901, 1911, 1921, 1931, 1941, 1951, 1961, 1971, 1981, 1991, 2001, 2011, 2021, 2031]","1097","1920","[960, 960, 960, 960, 960, 960, 960, 960, 960, 960, 960, 960, 960, 960, 960, 960, 960, 960, 960, 960, 960, 960, 960, 960, 960, 960, 960, 960, 960, 960, 960, 960, 960, 960, 960, 960, 960, 960, 960, 960, 960, 960, 960, 961, 962, 962, 962, 963, 963, 963, 964, 965, 965, 966, 967, 968, 968, 969, 969, 971, 971, 972, 975, 979, 980, 982, 984, 988, 990, 995, 998, 1007, 1012, 1018, 1025, 1040, 1047, 1054, 1061, 1076, 1080, 1087, 1093, 1108, 1114, 1121, 1127, 1140, 1147, 1154, 1158, 1169, 1172, 1177, 1181, 1187, 1192, 1200, 1209, 1230, 1241, 1250, 1262, 1282, 1289, 1300, 1309, 1325, 1334, 1342, 1352, 1370, 1379, 1385, 1393, 1405, 1412, 1419, 1427, 1442, 1450, 1459, 1466, 1483, 1490, 1497, 1503, 1518, 1526, 1532, 1541, 1556, 1563, 1568, 1576, 1587, 1591, 1594, 1598, 1607, 1610, 1613, 1617, 1624, 1627, 1629, 1632, 1637, 1639, 1643, 1645, 1650, 1652, 1656, 1657, 1661, 1663, 1665, 1667, 1671, 1672, 1675, 1677, 1681, 1683, 1685, 1686, 1690, 1693, 1694, 1696, 1700, 1702, 1703, 1705, 1707, 1709, 1710, 1712, 1714, 1714, 1716, 1716, 1717, 1718, 1719, 1719, 1719, 1719, 1719, 1719, 1719, 1719, 1719, 1719, 1719, 1719, 1719, 1719, 1719, 1719, 1719, 1719]","[1010, 1010, 1010, 1010, 1010, 1010, 1010, 1010, 1010, 1010, 1010, 1010, 1010, 1010, 1010, 1010, 1010, 1010, 1010, 1010, 1010, 1010, 1010, 1010, 1010, 1010, 1010, 1010, 1010, 1010, 1010, 1010, 1010, 1010, 1010, 1010, 1010, 1010, 1010, 1010, 1010, 1009, 1009, 1006, 1005, 1005, 1004, 1002, 1001, 1000, 999, 996, 995, 993, 992, 988, 986, 985, 984, 979, 978, 974, 970, 958, 953, 945, 939, 923, 916, 907, 899, 883, 874, 864, 851, 827, 816, 804, 791, 771, 763, 755, 744, 724, 715, 706, 697, 680, 670, 661, 652, 636, 630, 623, 617, 604, 598, 586, 576, 553, 544, 534, 523, 503, 495, 485, 476, 458, 449, 439, 426, 412, 405, 400, 395, 384, 379, 372, 367, 352, 345, 337, 331, 318, 312, 307, 303, 292, 286, 280, 275, 262, 258, 254, 248, 239, 235, 233, 229, 221, 217, 214, 210, 203, 200, 196, 194, 186, 184, 180, 178, 171, 169, 165, 163, 157, 156, 153, 151, 147, 146, 142, 140, 134, 132, 130, 128, 123, 121, 120, 117, 113, 112, 111, 108, 106, 105, 104, 102, 99, 98, 97, 97, 96, 95, 94, 94, 94, 93, 93, 93, 93, 93, 93, 93, 93, 93, 93, 93, 93, 93, 93, 93]"
"Trust","Teilnehmer A hat Ihnen 2 Punkte übermittelt.","Payback","1","undefined","12","0","4","60","1080","461","5","1","1700","0","legacy","[11, 21, 31, 41, 51, 61, 71, 81, 91, 101, 111, 121, 131, 141, 151, 161, 171, 181, 191, 201, 211, 221, 231, 241, 251, 261, 271, 281, 291, 301, 311, 321, 331, 341, 351, 361, 371, 381, 391, 401, 411, 421, 431, 441, 451, 461, 471, 481, 491, 501, 511, 521, 531, 541, 551, 561, 571, 581, 591, 601, 611, 621, 631, 641, 651, 661, 671, 681, 691, 701, 711, 721, 731, 741, 751, 761, 771, 781, 791, 801, 811, 821, 831, 841, 851, 861, 871, 881, 891, 901, 911, 921, 931, 941, 951, 961, 971, 981, 991, 1001, 1011, 1021, 1031, 1041, 1051, 1061, 1071, 1081, 1091, 1101, 1111, 1121, 1131, 1141, 1151, 1161, 1171, 1181, 1191, 1201, 1211, 1221, 1231, 1241, 1251, 1261, 1271, 1281, 1291, 1301, 1311, 1321, 1331, 1341, 1351, 1361, 1371, 1381, 1391, 1401, 1411, 1421, 1431, 1441, 1451, 1461, 1471, 1481, 1491, 1501, 1511, 1521, 1531, 1541, 1551, 1561, 1571, 1581, 1591, 1601, 1611, 1621, 1631, 1641, 1651, 1661, 1671, 1681, 1691]","1097","1920","[960, 960, 960, 960, 960, 960, 960, 960, 960, 960, 960, 960, 960, 960, 960, 960, 960, 960, 960, 960, 960, 960, 960, 960, 960, 960, 960, 960, 960, 961, 961, 963, 963, 964, 964, 965, 967, 969, 972, 974, 976, 981, 983, 986, 988, 997, 1001, 1006, 1013, 1025, 1032, 1040, 1045, 1056, 1062, 1068, 1073, 1087, 1093, 1103, 1110, 1128, 1138, 1145, 1152, 1168, 1175, 1182, 1190, 1201, 1207, 1213, 1219, 1232, 1237, 1242, 1250, 1260, 1266, 1271, 1279, 1288, 1295, 1301, 1306, 1319, 1327, 1335, 1344, 1369, 1382, 1389, 1402, 1431, 1446, 1462, 1479, 1512, 1526, 1536, 1545, 1562, 1571, 1577, 1583, 1593, 1597, 1602, 1606, 1612, 1614, 1616, 1618, 1623, 1626, 1628, 1632, 1636, 1638, 1643, 1645, 1652, 1654, 1658, 1659, 1664, 1664, 1666, 1668, 1671, 1673, 1675, 1676, 1678, 1678, 1680, 1682, 1682, 1682, 1682, 1682, 1682, 1682, 1682, 1682, 1682, 1682, 1682, 1682, 1682, 1682, 1682, 1682, 1682, 1682, 1682, 1682, 1682, 1682, 1682, 1682, 1682, 1682, 1682, 1682, 1682, 1682, 1682, 1682]","[1010, 1010, 1010, 1010, 1010, 1010, 1010, 1010, 1010, 1010, 1010, 1010, 1010, 1010, 1010, 1010, 1010, 1010, 1010, 1010, 1010, 1010, 1010, 1010, 1010, 1010, 1010, 1010, 1010, 1010, 1009, 1007, 1007, 1004, 1002, 1000, 996, 989, 984, 978, 973, 963, 957, 951, 943, 929, 921, 914, 903, 885, 874, 865, 858, 842, 831, 821, 811, 791, 781, 769, 759, 735, 720, 710, 700, 678, 667, 655, 644, 625, 616, 610, 600, 581, 572, 566, 558, 547, 539, 533, 524, 510, 501, 494, 485, 467, 458, 451, 439, 413, 400, 389, 373, 337, 319, 303, 285, 256, 241, 231, 222, 207, 198, 192, 184, 172, 167, 162, 158, 152, 149, 148, 146, 140, 138, 137, 133, 129, 128, 124, 123, 118, 116, 113, 112, 109, 108, 108, 106, 105, 104, 102, 102, 101, 101, 100, 99, 99, 98, 98, 98, 98, 98, 98, 98, 98, 98, 98, 98, 98, 98, 98, 98, 98, 98, 98, 98, 98, 98, 98, 98, 98, 98, 98, 98, 98, 98, 98, 98]"
"Trust","Teilnehmer A hat Ihnen 2 Punkte übermittelt.","Payback","0","undefined","13","0","4","60","1080","491","10","2","2510","0","legacy","[11, 21, 31, 41, 51, 61, 71, 81, 91, 101, 111, 121, 131, 141, 151, 161, 171, 181, 191, 201, 211, 221, 231, 241, 251, 261, 271, 281, 291, 301, 311, 321, 331, 341, 351, 361, 371, 381, 391, 401, 411, 421, 431, 441, 451, 461, 471, 481, 491, 501, 511, 521, 531, 541, 551, 561, 571, 581, 591, 601, 611, 621, 631, 641, 651, 661, 671, 681, 691, 701, 711, 721, 731, 741, 751, 761, 771, 781, 791, 801, 811, 821, 831, 841, 851, 861, 871, 881, 891, 901, 911, 921, 931, 941, 951, 961, 971, 981, 991, 1001, 1011, 1021, 1031, 1041, 1051, 1061, 1071, 1081, 1091, 1101, 1111, 1121, 1131, 1141, 1151, 1161, 1171, 1181, 1191, 1201, 1211, 1221, 1231, 1241, 1251, 1261, 1271, 1281, 1291, 1301, 1311, 1321, 1331, 1341, 1351, 1361, 1371, 1381, 1391, 1401, 1411, 1421, 1431, 1441, 1451, 1461, 1471, 1481, 1491, 1501, 1511, 1521, 1531, 1541, 1551, 1561, 1571, 1581, 1591, 1601, 1611, 1621, 1631, 1641, 1651, 1661, 1671, 1681, 1691, 1701, 1711, 1721, 1731, 1741, 1751, 1761, 1771, 1781, 1791, 1801, 1811, 1821, 1831, 1841, 1851, 1861, 1871, 1881, 1891, 1901, 1911, 1921, 1931, 1941, 1951, 1961, 1971, 1981, 1991, 2001, 2011, 2021, 2031, 2041, 2051, 2061, 2071, 2081, 2091, 2101, 2111, 2121, 2131, 2141, 2151, 2161, 2171, 2181, 2191, 2201, 2211, 2221, 2231, 2241, 2251, 2261, 2271, 2281, 2291, 2301, 2311, 2321, 2331, 2341, 2351, 2361, 2371, 2381, 2391, 2401, 2411, 2421, 2431, 2441, 2451, 2461, 2471, 2481, 2491, 2501]","1097","1920","[960, 960, 960, 960, 960, 960, 960, 960, 960, 960, 960, 960, 960, 960, 960, 960, 960, 960, 960, 960, 960, 960, 960, 960, 960, 960, 960, 960, 960, 959, 959, 959, 959, 958, 957, 957, 957, 956, 955, 955, 955, 954, 953, 952, 952, 951, 950, 950, 949, 947, 944, 944, 944, 943, 940, 940, 940, 939, 937, 936, 936, 936, 934, 932, 932, 930, 928, 927, 926, 925, 922, 921, 919, 918, 915, 913, 913, 913, 910, 909, 907, 907, 905, 904, 903, 903, 900, 899, 898, 896, 896, 895, 895, 894, 892, 891, 891, 890, 887, 886, 885, 884, 882, 881, 880, 878, 874, 870, 867, 865, 859, 853, 849, 844, 832, 825, 815, 808, 789, 779, 771, 763, 748, 738, 731, 720, 700, 690, 682, 673, 659, 651, 644, 639, 629, 623, 618, 613, 603, 596, 590, 581, 570, 562, 556, 550, 537, 531, 525, 519, 505, 499, 493, 488, 477, 471, 468, 463, 452, 446, 441, 435, 423, 418, 412, 406, 396, 392, 388, 380, 370, 364, 361, 357, 348, 347, 342, 337, 329, 325, 321, 318, 312, 310, 307, 306, 303, 302, 300, 297, 292, 289, 288, 285, 281, 278, 277, 276, 273, 270, 268, 267, 259, 255, 253, 250, 245, 244, 243, 242, 241, 241, 241, 241, 238, 237, 237, 236, 234, 234, 234, 234, 234, 234, 234, 234, 234, 234, 234, 234, 234, 234, 234, 234, 234, 234, 234, 234, 234, 234, 234, 234, 234, 234, 234, 234, 234, 234, 234, 234]","[1010, 1010, 1010, 1010, 1010, 1010, 1010, 1010, 1010, 1010, 1010, 1010, 1010, 1010, 1010, 1010, 1010, 1010, 1010, 1010, 1010, 1009, 1009, 1009, 1009, 1008, 1007, 1006, 1004, 1003, 1001, 1001, 1000, 999, 996, 994, 993, 990, 984, 982, 979, 974, 966, 962, 958, 955, 946, 942, 939, 935, 927, 927, 924, 919, 914, 912, 909, 907, 900, 898, 895, 891, 885, 880, 877, 874, 868, 863, 860, 855, 846, 840, 836, 831, 821, 818, 815, 810, 803, 800, 795, 792, 781, 777, 770, 767, 758, 753, 747, 741, 734, 728, 725, 721, 712, 706, 702, 698, 689, 682, 676, 670, 660, 653, 645, 639, 626, 617, 611, 605, 590, 583, 574, 564, 544, 532, 517, 504, 478, 464, 453, 441, 421, 407, 398, 386, 364, 352, 343, 332, 314, 306, 298, 293, 279, 273, 268, 259, 248, 241, 236, 231, 220, 215, 210, 204, 196, 191, 186, 182, 172, 169, 165, 161, 156, 152, 150, 148, 142, 139, 137, 134, 129, 127, 124, 122, 118, 118, 117, 114, 112, 109, 108, 107, 105, 105, 104, 104, 103, 102, 102, 102, 102, 102, 102, 102, 102, 102, 102, 101, 101, 101, 101, 101, 101, 101, 101, 101, 101, 101, 101, 101, 101, 101, 101, 101, 101, 101, 101, 101, 101, 101, 101, 101, 101, 101, 101, 101, 101, 101, 101, 101, 101, 101, 101, 101, 101, 101, 101, 101, 101, 101, 101, 101, 101, 101, 101, 101, 101, 101, 101, 101, 101, 101, 101, 101, 101, 101, 101, 101]"
"Trust","Teilnehmer A hat Ihnen 2 Punkte übermittelt.","Payback","1","undefined","14","0","4","60","1080","511","5","1","1790","0","legacy","[11, 21, 31, 41, 51, 61, 71, 81, 91, 101, 111, 121, 131, 141, 151, 161, 171, 181, 191, 201, 211, 221, 231, 241, 251, 261, 271, 281, 291, 301, 311, 321, 331, 341, 351, 361, 371, 381, 391, 401, 411, 421, 431, 441, 451, 461, 471, 481, 491, 501, 511, 521, 531, 541, 551, 561, 571, 581, 591, 601, 611, 621, 631, 641, 651, 661, 671, 681, 691, 701, 711, 721, 731, 741, 751, 761, 771, 781, 791, 801, 811, 821, 831, 841, 851, 861, 871, 881, 891, 901, 911, 921, 931, 941, 951, 961, 971, 981, 991, 1001, 1011, 1021, 1031, 1041, 1051, 1061, 1071, 1081, 1091, 1101, 1111, 1121, 1131, 1141, 1151, 1161, 1171, 1181, 1191, 1201, 1211, 1221, 1231, 1241, 1251, 1261, 1271, 1281, 1291, 1301, 1311, 1321, 1331, 1341, 1351, 1361, 1371, 1381, 1391, 1401, 1411, 1421, 1431, 1441, 1451, 1461, 1471, 1481, 1491, 1501, 1511, 1521, 1531, 1541, 1551, 1561, 1571, 1581, 1591, 1601, 1611, 1621, 1631, 1641, 1651, 1661, 1671, 1681, 1691, 1701, 1711, 1721, 1731, 1741, 1751, 1761, 1771, 1781]","1097","1920","[960, 960, 960, 960, 960, 960, 960, 960, 960, 960, 960, 960, 960, 960, 960, 960, 960, 960, 960, 960, 960, 960, 960, 960, 960, 960, 960, 960, 960, 960, 960, 960, 960, 960, 962, 963, 966, 966, 970, 974, 976, 976, 980, 981, 985, 985, 989, 992, 994, 997, 1002, 1003, 1006, 1008, 1014, 1018, 1022, 1027, 1037, 1042, 1049, 1054, 1067, 1073, 1080, 1084, 1094, 1099, 1103, 1109, 1121, 1126, 1134, 1142, 1155, 1162, 1168, 1175, 1189, 1194, 1200, 1206, 1222, 1230, 1240, 1246, 1264, 1269, 1279, 1285, 1300, 1308, 1315, 1326, 1344, 1350, 1360, 1367, 1383, 1393, 1400, 1409, 1427, 1437, 1445, 1454, 1467, 1475, 1483, 1489, 1500, 1507, 1513, 1519, 1532, 1537, 1545, 1551, 1564, 1568, 1574, 1581, 1592, 1599, 1605, 1611, 1622, 1627, 1631, 1636, 1645, 1648, 1652, 1656, 1660, 1663, 1665, 1668, 1673, 1674, 1677, 1679, 1683, 1685, 1687, 1689, 1691, 1691, 1691, 1691, 1693, 1693, 1693, 1693, 1693, 1693, 1693, 1693, 1693, 1693, 1693, 1693, 1693, 1693, 1693, 1693, 1693, 1693, 1693, 1693, 1693, 1693, 1693, 1693, 1693, 1693, 1693, 1693]","[1010, 1010, 1010, 1010, 1010, 1010, 1010, 1010, 1010, 1010, 1010, 1010, 1010, 1010, 1010, 1010, 1010, 1010, 1010, 1010, 1010, 1010, 1010, 1010, 1010, 1010, 1010, 1010, 1010, 1010, 1010, 1010, 1010, 1011, 1009, 1007, 1003, 1002, 996, 992, 988, 986, 979, 974, 969, 966, 957, 949, 945, 940, 931, 927, 922, 919, 909, 903, 897, 891, 877, 870, 861, 853, 834, 825, 816, 808, 792, 783, 775, 765, 745, 736, 726, 716, 697, 687, 678, 668, 649, 640, 631, 621, 600, 589, 579, 568, 545, 535, 525, 516, 493, 481, 471, 459, 438, 430, 420, 412, 395, 386, 376, 367, 349, 339, 328, 319, 304, 297, 290, 283, 272, 266, 259, 253, 242, 237, 231, 226, 214, 210, 205, 199, 188, 183, 178, 173, 164, 158, 155, 152, 144, 142, 138, 134, 130, 128, 126, 124, 120, 119, 118, 117, 113, 112, 110, 109, 107, 107, 107, 107, 105, 105, 105, 105, 105, 105, 105, 105, 105, 105, 105, 105, 105, 105, 105, 105, 105, 105, 105, 105, 105, 105, 105, 105, 105, 105, 105, 105]"
"Promise","Wie oft werden Sie die Hälfte zurückgeben?","Promise","1","undefined","14","0","5","60","1080","421","5","1","1648","0","legacy","[11, 21, 31, 41, 51, 61, 71, 81, 91, 101, 111, 121, 131, 141, 151, 161, 171, 181, 191, 201, 211, 221, 231, 241, 251, 261, 271, 281, 291, 301, 311, 321, 331, 341, 351, 361, 371, 381, 391, 401, 411, 421, 431, 441, 451, 461, 471, 481, 491, 501, 511, 521, 531, 541, 551, 561, 571, 581, 591, 601, 611, 621, 631, 641, 651, 661, 671, 681, 691, 701, 711, 721, 731, 741, 751, 761, 771, 781, 791, 801, 811, 821, 831, 841, 851, 861, 871, 881, 891, 901, 911, 921, 931, 941, 951, 961, 971, 981, 991, 1001, 1011, 1021, 1031, 1041, 1051, 1061, 1071, 1081, 1091, 1101, 1111, 1121, 1131, 1141, 1151, 1161, 1171, 1181, 1191, 1201, 1211, 1221, 1231, 1241, 1251, 1261, 1271, 1281, 1291, 1301, 1311, 1321, 1331, 1341, 1351, 1361, 1371, 1381, 1391, 1401, 1411, 1421, 1431, 1441, 1451, 1461, 1471, 1481, 1491, 1501, 1511, 1521, 1531, 1541, 1551, 1561, 1571, 1581, 1591, 1601, 1611, 1621, 1631, 1641]","1097","1920","[960, 960, 960, 960, 960, 960, 960, 960, 960, 960, 960, 960, 960, 960, 960, 960, 960, 960, 960, 960, 960, 960, 960, 960, 960, 960, 960, 960, 960, 960, 960, 962, 962, 964, 965, 970, 974, 975, 978, 983, 985, 987, 990, 995, 998, 999, 1003, 1009, 1014, 1016, 1021, 1027, 1031, 1033, 1039, 1049, 1054, 1060, 1067, 1085, 1096, 1104, 1113, 1127, 1137, 1144, 1152, 1166, 1173, 1181, 1188, 1201, 1206, 1214, 1221, 1234, 1241, 1248, 1253, 1265, 1271, 1278, 1285, 1302, 1311, 1319, 1328, 1344, 1352, 1361, 1370, 1386, 1395, 1405, 1414, 1434, 1444, 1455, 1465, 1484, 1494, 1502, 1511, 1530, 1542, 1552, 1561, 1577, 1587, 1594, 1600, 1613, 1620, 1625, 1629, 1639, 1643, 1649, 1655, 1664, 1667, 1672, 1676, 1682, 1684, 1687, 1689, 1693, 1695, 1697, 1699, 1704, 1706, 1709, 1710, 1713, 1716, 1716, 1718, 1720, 1723, 1725, 1727, 1728, 1730, 1730, 1731, 1731, 1732, 1732, 1733, 1735, 1736, 1736, 1737, 1737, 1739, 1739, 1739, 1739, 1739, 1739, 1739, 1739]","[1010, 1010, 1010, 1010, 1010, 1010, 1010, 1010, 1010, 1010, 1010, 1010, 1010, 1010, 1010, 1010, 1010, 1010, 1010, 1010, 1010, 1010, 1010, 1010, 1009, 1009, 1008, 1006, 1006, 1004, 1002, 998, 995, 992, 989, 977, 971, 966, 960, 950, 945, 939, 933, 921, 915, 908, 899, 883, 876, 869, 859, 843, 836, 826, 816, 797, 787, 775, 764, 738, 721, 711, 698, 678, 666, 656, 644, 625, 615, 605, 594, 578, 570, 561, 554, 540, 532, 525, 519, 508, 502, 494, 486, 468, 460, 450, 441, 428, 419, 410, 401, 386, 377, 367, 360, 342, 336, 327, 319, 303, 294, 288, 280, 266, 258, 250, 243, 232, 225, 220, 216, 208, 204, 200, 196, 190, 186, 182, 178, 170, 167, 163, 160, 155, 152, 150, 148, 144, 142, 140, 138, 135, 133, 131, 130, 128, 125, 125, 124, 121, 119, 118, 116, 115, 113, 113, 112, 112, 112, 112, 111, 110, 109, 109, 109, 109, 108, 108, 108, 108, 108, 108, 108, 108]"
"NoTrust","Teilnehmer A hat Ihnen keine 2 Punkte übermittelt.","Payback","1","undefined","15","0","5","60","1080","421","0","1","1648","0","legacy","[11, 21, 31, 41, 51, 61, 71, 81, 91, 101, 111, 121, 131, 141, 151, 161, 171, 181, 191, 201, 211, 221, 231, 241, 251, 261, 271, 281, 291, 301, 311, 321, 331, 341, 351, 361, 371, 381, 391, 401, 411, 421, 431, 441, 451, 461, 471, 481, 491, 501, 511, 521, 531, 541, 551, 561, 571, 581, 591, 601, 611, 621, 631, 641, 651, 661, 671, 681, 691, 701, 711, 721, 731, 741, 751, 761, 771, 781, 791, 801, 811, 821, 831, 841, 851, 861, 871, 881, 891, 901, 911, 921, 931, 941, 951, 961, 971, 981, 991, 1001, 1011, 1021, 1031, 1041, 1051, 1061, 1071, 1081, 1091, 1101, 1111, 1121, 1131, 1141, 1151, 1161, 1171, 1181, 1191, 1201, 1211, 1221, 1231, 1241, 1251, 1261, 1271, 1281, 1291, 1301, 1311, 1321, 1331, 1341, 1351, 1361, 1371, 1381, 1391, 1401, 1411, 1421, 1431, 1441, 1451, 1461, 1471, 1481, 1491, 1501, 1511, 1521, 1531, 1541, 1551, 1561, 1571, 1581, 1591, 1601, 1611, 1621, 1631, 1641]","1097","1920","[960, 960, 960, 960, 960, 960, 960, 960, 960, 960, 960, 960, 960, 960, 960, 960, 960, 960, 960, 960, 960, 960, 960, 960, 960, 960, 960, 960, 960, 960, 960, 962, 962, 964, 965, 970, 974, 975, 978, 983, 985, 987, 990, 995, 998, 999, 1003, 1009, 1014, 1016, 1021, 1027, 1031, 1033, 1039, 1049, 1054, 1060, 1067, 1085, 1096, 1104, 1113, 1127, 1137, 1144, 1152, 1166, 1173, 1181, 1188, 1201, 1206, 1214, 1221, 1234, 1241, 1248, 1253, 1265, 1271, 1278, 1285, 1302, 1311, 1319, 1328, 1344, 1352, 1361, 1370, 1386, 1395, 1405, 1414, 1434, 1444, 1455, 1465, 1484, 1494, 1502, 1511, 1530, 1542, 1552, 1561, 1577, 1587, 1594, 1600, 1613, 1620, 1625, 1629, 1639, 1643, 1649, 1655, 1664, 1667, 1672, 1676, 1682, 1684, 1687, 1689, 1693, 1695, 1697, 1699, 1704, 1706, 1709, 1710, 1713, 1716, 1716, 1718, 1720, 1723, 1725, 1727, 1728, 1730, 1730, 1731, 1731, 1732, 1732, 1733, 1735, 1736, 1736, 1737, 1737, 1739, 1739, 1739, 1739, 1739, 1739, 1739, 1739]","[1010, 1010, 1010, 1010, 1010, 1010, 1010, 1010, 1010, 1010, 1010, 1010, 1010, 1010, 1010, 1010, 1010, 1010, 1010, 1010, 1010, 1010, 1010, 1010, 1009, 1009, 1008, 1006, 1006, 1004, 1002, 998, 995, 992, 989, 977, 971, 966, 960, 950, 945, 939, 933, 921, 915, 908, 899, 883, 876, 869, 859, 843, 836, 826, 816, 797, 787, 775, 764, 738, 721, 711, 698, 678, 666, 656, 644, 625, 615, 605, 594, 578, 570, 561, 554, 540, 532, 525, 519, 508, 502, 494, 486, 468, 460, 450, 441, 428, 419, 410, 401, 386, 377, 367, 360, 342, 336, 327, 319, 303, 294, 288, 280, 266, 258, 250, 243, 232, 225, 220, 216, 208, 204, 200, 196, 190, 186, 182, 178, 170, 167, 163, 160, 155, 152, 150, 148, 144, 142, 140, 138, 135, 133, 131, 130, 128, 125, 125, 124, 121, 119, 118, 116, 115, 113, 113, 112, 112, 112, 112, 111, 110, 109, 109, 109, 109, 108, 108, 108, 108, 108, 108, 108, 108]"
"Trust","Teilnehmer A hat Ihnen 2 Punkte übermittelt.","Payback","0","undefined","16","0","5","60","1080","411","10","2","1583","0","legacy","[11, 21, 31, 41, 51, 61, 71, 81, 91, 101, 111, 121, 131, 141, 151, 161, 171, 181, 191, 201, 211, 221, 231, 241, 251, 261, 271, 281, 291, 301, 311, 321, 331, 341, 351, 361, 371, 381, 391, 401, 411, 421, 431, 441, 451, 461, 471, 481, 491, 501, 511, 521, 531, 541, 551, 561, 571, 581, 591, 601, 611, 621, 631, 641, 651, 661, 671, 681, 691, 701, 711, 721, 731, 741, 751, 761, 771, 781, 791, 801, 811, 821, 831, 841, 851, 861, 871, 881, 891, 902, 911, 921, 931, 941, 951, 961, 971, 981, 991, 1001, 1011, 1021, 1031, 1041, 1051, 1061, 1071, 1081, 1091, 1101, 1111, 1121, 1131, 1141, 1151, 1161, 1171, 1181, 1191, 1201, 1211, 1221, 1231, 1241, 1251, 1261, 1271, 1281, 1291, 1301, 1311, 1321, 1331, 1341, 1351, 1361, 1371, 1381, 1391, 1401, 1411, 1421, 1431, 1441, 1451, 1461, 1471, 1481, 1491, 1501, 1511, 1521, 1531, 1541, 1551, 1561, 1571, 1581]","1097","1920","[960, 960, 960, 960, 960, 960, 960, 960, 960, 960, 960, 960, 960, 960, 960, 960, 960, 960, 960, 960, 960, 960, 960, 960, 960, 960, 960, 960, 960, 960, 960, 960, 960, 960, 959, 959, 957, 954, 950, 944, 940, 937, 926, 922, 916, 910, 898, 892, 886, 882, 873, 868, 865, 864, 857, 854, 852, 847, 842, 837, 834, 829, 823, 820, 816, 813, 806, 799, 794, 788, 777, 770, 764, 759, 749, 741, 733, 726, 712, 704, 697, 689, 668, 661, 650, 638, 614, 601, 582, 567, 554, 526, 512, 502, 490, 468, 458, 451, 440, 420, 411, 401, 392, 376, 367, 358, 352, 338, 333, 327, 320, 307, 300, 292, 284, 267, 261, 254, 249, 238, 234, 230, 225, 218, 215, 213, 211, 206, 205, 203, 202, 198, 196, 196, 196, 196, 196, 196, 196, 196, 196, 196, 196, 196, 196, 196, 196, 196, 196, 196, 196, 196, 196, 196, 196, 196, 196, 196]","[1010, 1010, 1010, 1010, 1010, 1010, 1010, 1010, 1010, 1010, 1010, 1010, 1010, 1010, 1010, 1010, 1010, 1010, 1010, 1010, 1010, 1010, 1010, 1010, 1010, 1010, 1010, 1010, 1010, 1010, 1010, 1010, 1007, 1004, 994, 989, 983, 974, 959, 946, 936, 924, 898, 886, 871, 859, 829, 818, 805, 794, 775, 766, 755, 746, 725, 712, 701, 690, 667, 656, 646, 635, 618, 609, 600, 594, 576, 567, 558, 551, 536, 527, 520, 513, 500, 493, 486, 480, 469, 461, 455, 448, 431, 423, 415, 404, 383, 370, 354, 341, 328, 303, 293, 283, 275, 261, 253, 246, 239, 225, 218, 211, 206, 194, 188, 181, 177, 167, 163, 159, 156, 146, 141, 137, 132, 123, 119, 115, 111, 105, 104, 101, 98, 95, 94, 92, 92, 91, 89, 89, 89, 86, 86, 86, 86, 86, 86, 86, 86, 86, 86, 86, 86, 86, 86, 86, 86, 86, 86, 86, 86, 86, 86, 86, 86, 86, 86, 86]"
"Trust","Teilnehmer A hat Ihnen 2 Punkte übermittelt.","Payback","0","undefined","17","0","5","60","1080","381","10","2","1813","0","legacy","[11, 21, 31, 41, 51, 61, 71, 81, 91, 101, 111, 121, 131, 141, 151, 161, 171, 181, 191, 201, 211, 221, 231, 241, 251, 261, 271, 281, 291, 301, 311, 321, 331, 341, 351, 361, 371, 381, 391, 401, 411, 421, 431, 441, 451, 461, 471, 481, 491, 501, 511, 521, 531, 541, 551, 561, 571, 581, 591, 601, 611, 621, 631, 641, 651, 661, 671, 681, 691, 701, 711, 721, 731, 741, 751, 761, 771, 781, 791, 801, 811, 821, 831, 841, 851, 861, 871, 881, 891, 901, 911, 921, 931, 941, 951, 961, 971, 981, 991, 1001, 1011, 1021, 1031, 1041, 1051, 1061, 1071, 1081, 1091, 1101, 1111, 1121, 1131, 1141, 1151, 1161, 1171, 1181, 1191, 1201, 1211, 1221, 1231, 1241, 1251, 1261, 1271, 1281, 1291, 1301, 1311, 1321, 1331, 1341, 1351, 1361, 1371, 1381, 1391, 1401, 1411, 1421, 1431, 1441, 1451, 1461, 1471, 1481, 1491, 1501, 1511, 1521, 1531, 1541, 1551, 1561, 1571, 1581, 1591, 1601, 1611, 1621, 1631, 1641, 1651, 1661, 1671, 1681, 1691, 1701, 1711, 1721, 1731, 1741, 1751, 1761, 1771, 1781, 1791, 1801, 1811]","1097","1920","[960, 960, 960, 960, 960, 960, 960, 960, 960, 960, 960, 960, 960, 960, 960, 960, 960, 960, 960, 960, 960, 960, 960, 960, 960, 960, 960, 960, 960, 960, 959, 958, 957, 956, 949, 946, 942, 939, 925, 916, 904, 891, 869, 859, 851, 841, 824, 812, 804, 796, 770, 763, 751, 735, 715, 705, 697, 688, 673, 665, 660, 650, 635, 627, 617, 609, 595, 588, 580, 574, 560, 554, 546, 538, 524, 518, 509, 503, 488, 483, 478, 473, 460, 454, 447, 441, 429, 424, 416, 412, 401, 395, 389, 382, 370, 365, 356, 351, 339, 333, 327, 320, 308, 299, 292, 287, 272, 266, 261, 252, 238, 230, 225, 219, 210, 207, 202, 201, 195, 192, 189, 186, 182, 181, 180, 179, 177, 177, 177, 177, 177, 177, 177, 177, 177, 177, 177, 177, 177, 177, 177, 177, 177, 177, 177, 177, 177, 177, 177, 177, 177, 177, 177, 177, 177, 177, 177, 177, 177, 177, 177, 177, 177, 177, 177, 177, 177, 177, 177, 177, 177, 177, 177, 177, 177, 177, 177, 177, 177, 177, 177]","[1010, 1010, 1010, 1010, 1010, 1010, 1010, 1010, 1010, 1010, 1010, 1010, 1010, 1010, 1010, 1010, 1010, 1010, 1010, 1010, 1010, 1010, 1010, 1010, 1010, 1010, 1010, 1010, 1009, 1008, 1001, 999, 994, 988, 969, 958, 946, 932, 895, 864, 835, 808, 758, 740, 724, 708, 676, 656, 638, 625, 590, 577, 562, 542, 517, 506, 497, 486, 468, 460, 453, 443, 430, 424, 415, 409, 398, 392, 387, 382, 373, 368, 363, 356, 346, 342, 336, 330, 321, 317, 313, 308, 299, 297, 292, 288, 282, 278, 274, 272, 266, 262, 258, 253, 245, 241, 235, 231, 222, 218, 215, 210, 200, 196, 192, 189, 179, 174, 170, 165, 155, 150, 147, 144, 137, 134, 131, 129, 124, 122, 119, 117, 113, 112, 111, 110, 109, 109, 108, 108, 108, 108, 108, 108, 108, 108, 108, 108, 108, 108, 108, 108, 108, 108, 108, 108, 108, 108, 108, 108, 108, 108, 108, 108, 108, 108, 108, 108, 108, 108, 108, 108, 108, 108, 108, 108, 108, 108, 108, 108, 108, 108, 108, 108, 108, 108, 108, 108, 108, 108, 108]"
"Promise","Wie oft werden Sie die Hälfte zurückgeben?","Promise","1","undefined","17","0","6","60","1080","341","10","1","1673","0","legacy","[11, 21, 31, 41, 51, 61, 71, 81, 91, 101, 111, 121, 131, 141, 151, 161, 171, 181, 191, 201, 211, 221, 231, 241, 251, 261, 271, 281, 291, 301, 311, 321, 331, 341, 351, 361, 371, 381, 391, 401, 411, 421, 431, 441, 451, 461, 471, 481, 491, 501, 511, 521, 531, 541, 551, 561, 571, 581, 591, 601, 611, 621, 631, 641, 651, 661, 671, 681, 691, 701, 711, 721, 731, 741, 751, 761, 771, 781, 791, 801, 811, 821, 831, 841, 851, 861, 871, 881, 891, 901, 911, 921, 931, 941, 951, 961, 971, 981, 991, 1001, 1011, 1021, 1031, 1041, 1051, 1061, 1071, 1081, 1091, 1101, 1111, 1121, 1131, 1141, 1151, 1161, 1171, 1181, 1191, 1201, 1211, 1221, 1231, 1241, 1251, 1261, 1271, 1281, 1291, 1301, 1311, 1321, 1331, 1341, 1351, 1361, 1371, 1381, 1391, 1401, 1411, 1421, 1431, 1441, 1451, 1461, 1471, 1481, 1491, 1501, 1511, 1521, 1531, 1541, 1551, 1561, 1571, 1581, 1591, 1601, 1611, 1621, 1631, 1641, 1651, 1661, 1671]","1097","1920","[960, 960, 960, 960, 960, 960, 960, 960, 960, 960, 960, 960, 960, 960, 960, 960, 960, 960, 960, 960, 960, 960, 960, 960, 961, 961, 963, 964, 967, 969, 972, 974, 983, 985, 988, 991, 996, 1000, 1004, 1012, 1016, 1022, 1026, 1031, 1033, 1033, 1036, 1040, 1041, 1045, 1047, 1053, 1057, 1063, 1067, 1078, 1082, 1090, 1099, 1119, 1131, 1146, 1160, 1194, 1216, 1238, 1259, 1297, 1315, 1332, 1344, 1371, 1380, 1388, 1395, 1405, 1410, 1417, 1422, 1436, 1442, 1451, 1458, 1471, 1477, 1483, 1488, 1500, 1506, 1513, 1524, 1537, 1546, 1554, 1561, 1576, 1583, 1589, 1595, 1607, 1615, 1621, 1629, 1649, 1663, 1672, 1683, 1700, 1709, 1714, 1722, 1727, 1732, 1734, 1737, 1741, 1744, 1745, 1746, 1749, 1749, 1750, 1750, 1750, 1750, 1750, 1750, 1750, 1750, 1750, 1750, 1750, 1750, 1750, 1750, 1750, 1750, 1750, 1750, 1750, 1750, 1750, 1750, 1750, 1750, 1750, 1750, 1750, 1750, 1750, 1750, 1750, 1750, 1750, 1750, 1750, 1750, 1750, 1750, 1750, 1750, 1750, 1750, 1750, 1750, 1750, 1750]","[1010, 1010, 1010, 1010, 1010, 1010, 1010, 1010, 1010, 1010, 1010, 1010, 1010, 1010, 1010, 1010, 1010, 1010, 1010, 1010, 1009, 1008, 1007, 1006, 1003, 1000, 997, 994, 986, 981, 974, 968, 949, 939, 929, 920, 903, 894, 885, 869, 860, 853, 846, 836, 833, 830, 825, 817, 813, 806, 800, 784, 776, 763, 753, 730, 716, 700, 682, 642, 623, 598, 576, 537, 514, 492, 471, 441, 426, 413, 403, 381, 375, 369, 364, 355, 350, 344, 337, 326, 320, 313, 306, 296, 290, 286, 281, 273, 267, 261, 255, 246, 238, 232, 227, 215, 209, 203, 198, 185, 177, 171, 163, 149, 139, 132, 125, 115, 110, 106, 102, 98, 96, 93, 92, 88, 86, 84, 83, 81, 80, 79, 79, 79, 79, 79, 79, 79, 79, 79, 79, 79, 79, 79, 79, 79, 79, 79, 79, 79, 79, 79, 79, 79, 79, 79, 79, 79, 79, 79, 79, 79, 79, 79, 79, 79, 79, 79, 79, 79, 79, 79, 79, 79, 79, 79, 79]"
"Trust","Teilnehmer A hat Ihnen 2 Punkte übermittelt.","Payback","0","undefined","18","0","6","60","1080","461","10","2","1772","0","legacy","[11, 21, 31, 41, 51, 61, 71, 81, 91, 101, 111, 121, 131, 141, 151, 161, 171, 181, 191, 201, 211, 221, 231, 241, 251, 261, 271, 281, 291, 301, 311, 321, 331, 341, 351, 361, 371, 381, 391, 401, 411, 421, 431, 441, 451, 461, 471, 481, 491, 501, 511, 521, 531, 541, 551, 561, 571, 581, 591, 601, 611, 621, 631, 641, 651, 661, 671, 681, 691, 701, 711, 721, 731, 741, 751, 761, 771, 781, 791, 801, 811, 821, 831, 841, 851, 861, 871, 881, 891, 901, 911, 921, 931, 941, 951, 961, 971, 981, 991, 1001, 1011, 1021, 1031, 1041, 1051, 1061, 1071, 1081, 1091, 1101, 1111, 1121, 1131, 1141, 1151, 1161, 1171, 1181, 1191, 1201, 1211, 1221, 1231, 1241, 1251, 1261, 1271, 1281, 1291, 1301, 1311, 1321, 1331, 1341, 1351, 1361, 1371, 1381, 1391, 1401, 1411, 1421, 1431, 1441, 1451, 1461, 1471, 1481, 1491, 1501, 1511, 1521, 1531, 1541, 1551, 1561, 1571, 1581, 1591, 1601, 1611, 1621, 1631, 1641, 1651, 1661, 1671, 1681, 1691, 1701, 1711, 1721, 1731, 1741, 1751, 1761, 1771]","1097","1920","[960, 960, 960, 960, 960, 960, 960, 960, 960, 960, 960, 960, 960, 960, 960, 960, 960, 960, 960, 960, 960, 960, 960, 960, 960, 960, 960, 960, 960, 960, 960, 960, 960, 960, 960, 960, 960, 956, 953, 951, 947, 941, 936, 933, 928, 922, 916, 913, 908, 901, 895, 891, 887, 878, 876, 873, 868, 861, 854, 851, 846, 840, 835, 832, 827, 820, 818, 814, 811, 804, 799, 794, 790, 777, 771, 768, 761, 753, 748, 743, 738, 729, 724, 720, 715, 705, 699, 695, 689, 680, 677, 674, 670, 661, 656, 652, 646, 636, 630, 626, 622, 609, 604, 599, 593, 580, 574, 568, 559, 545, 538, 531, 525, 514, 508, 502, 497, 480, 473, 461, 455, 440, 431, 425, 418, 404, 398, 391, 383, 368, 360, 353, 346, 330, 321, 314, 308, 293, 288, 284, 280, 270, 266, 261, 255, 243, 237, 230, 225, 217, 214, 211, 208, 201, 198, 195, 194, 191, 190, 190, 190, 190, 190, 190, 190, 190, 190, 190, 190, 190, 190, 190, 190, 190, 190, 190, 190]","[1010, 1010, 1010, 1010, 1010, 1010, 1010, 1010, 1010, 1010, 1010, 1010, 1010, 1010, 1010, 1010, 1010, 1010, 1010, 1010, 1010, 1010, 1010, 1010, 1010, 1010, 1010, 1010, 1010, 1010, 1010, 1010, 1010, 1010, 1010, 1008, 1006, 998, 994, 992, 985, 969, 960, 951, 941, 924, 914, 907, 894, 876, 866, 857, 846, 828, 821, 814, 806, 786, 775, 766, 758, 742, 733, 724, 716, 701, 694, 686, 679, 663, 653, 644, 634, 613, 603, 593, 583, 565, 557, 549, 542, 527, 519, 510, 500, 483, 474, 467, 458, 442, 436, 431, 423, 411, 404, 397, 389, 377, 371, 366, 359, 347, 341, 336, 329, 314, 309, 304, 298, 286, 280, 275, 270, 261, 256, 253, 249, 238, 233, 225, 221, 211, 206, 202, 197, 188, 185, 181, 175, 167, 162, 158, 154, 144, 140, 137, 134, 128, 126, 123, 122, 118, 116, 115, 113, 108, 105, 104, 103, 99, 98, 97, 96, 93, 92, 90, 90, 89, 88, 88, 88, 88, 88, 88, 88, 88, 88, 88, 88, 88, 88, 88, 88, 88, 88, 88, 88]"
"Trust","Teilnehmer A hat Ihnen 2 Punkte übermittelt.","Payback","0","undefined","19","0","6","60","1080","441","10","2","2070","0","legacy","[11, 21, 31, 41, 51, 61, 71, 81, 91, 101, 111, 121, 131, 141, 151, 161, 171, 181, 191, 201, 211, 221, 231, 241, 251, 261, 271, 281, 291, 301, 311, 321, 331, 341, 351, 361, 371, 381, 391, 401, 411, 421, 431, 441, 451, 461, 471, 481, 491, 501, 511, 521, 531, 541, 551, 561, 571, 581, 591, 601, 611, 621, 631, 641, 651, 661, 671, 681, 691, 701, 711, 721, 731, 741, 751, 761, 771, 781, 791, 801, 811, 821, 831, 841, 851, 861, 871, 881, 891, 901, 911, 921, 931, 941, 951, 961, 971, 981, 991, 1001, 1011, 1021, 1031, 1041, 1051, 1061, 1071, 1081, 1091, 1101, 1111, 1121, 1131, 1141, 1151, 1161, 1171, 1181, 1191, 1201, 1211, 1221, 1231, 1241, 1251, 1261, 1271, 1281, 1291, 1301, 1311, 1321, 1331, 1341, 1351, 1361, 1371, 1381, 1391, 1401, 1411, 1421, 1431, 1441, 1451, 1461, 1471, 1481, 1491, 1501, 1511, 1521, 1531, 1541, 1551, 1561, 1571, 1581, 1591, 1601, 1611, 1621, 1631, 1641, 1651, 1661, 1671, 1681, 1691, 1701, 1711, 1721, 1731, 1741, 1751, 1761, 1771, 1781, 1791, 1801, 1811, 1821, 1831, 1841, 1851, 1861, 1871, 1881, 1891, 1901, 1911, 1921, 1931, 1941, 1951, 1961, 1971, 1981, 1991, 2001, 2011, 2021, 2031, 2041, 2051, 2061]","1097","1920","[960, 960, 960, 960, 960, 960, 960, 960, 960, 960, 960, 960, 960, 960, 960, 960, 960, 960, 960, 960, 960, 960, 960, 960, 960, 960, 960, 960, 960, 960, 960, 960, 960, 961, 961, 961, 961, 961, 961, 961, 961, 961, 961, 961, 961, 961, 960, 960, 959, 956, 951, 950, 948, 944, 939, 937, 933, 931, 926, 923, 918, 915, 906, 900, 896, 893, 882, 876, 870, 864, 850, 847, 841, 833, 821, 813, 807, 799, 779, 771, 760, 750, 732, 725, 716, 709, 696, 692, 688, 684, 673, 668, 662, 656, 646, 640, 636, 632, 625, 622, 617, 614, 605, 601, 597, 595, 588, 586, 582, 580, 577, 574, 572, 570, 562, 557, 550, 545, 532, 523, 515, 508, 491, 487, 478, 471, 457, 449, 443, 436, 422, 414, 408, 402, 387, 381, 372, 366, 356, 347, 344, 338, 330, 328, 324, 319, 310, 306, 303, 299, 290, 286, 284, 280, 272, 268, 262, 259, 250, 246, 243, 239, 233, 231, 229, 227, 222, 219, 218, 215, 213, 212, 212, 212, 212, 212, 212, 212, 212, 212, 212, 212, 212, 212, 212, 212, 212, 212, 212, 212, 212, 212, 212, 212, 212, 212, 212, 212, 212, 212, 212, 212, 212, 212, 212, 212]","[1010, 1010, 1010, 1010, 1010, 1010, 1010, 1010, 1010, 1010, 1010, 1010, 1010, 1010, 1010, 1010, 1010, 1010, 1010, 1010, 1010, 1010, 1010, 1010, 1010, 1010, 1010, 1010, 1009, 1007, 1004, 1003, 1000, 999, 993, 989, 987, 984, 978, 973, 967, 962, 947, 937, 926, 917, 905, 897, 888, 880, 856, 847, 837, 824, 805, 796, 786, 778, 760, 753, 743, 734, 715, 704, 692, 682, 661, 650, 639, 628, 605, 596, 583, 572, 553, 541, 531, 521, 493, 484, 470, 460, 441, 433, 424, 416, 405, 399, 394, 387, 372, 366, 360, 352, 340, 334, 332, 328, 321, 317, 313, 310, 301, 296, 293, 291, 285, 283, 279, 278, 273, 270, 268, 266, 259, 255, 250, 245, 236, 229, 225, 218, 207, 203, 198, 193, 184, 180, 177, 173, 167, 162, 160, 156, 150, 147, 145, 142, 137, 134, 132, 131, 128, 128, 126, 123, 119, 118, 118, 117, 113, 112, 111, 110, 108, 105, 104, 104, 101, 100, 99, 99, 97, 96, 95, 95, 93, 92, 92, 91, 90, 90, 90, 90, 90, 90, 90, 90, 90, 90, 90, 90, 90, 90, 90, 90, 90, 90, 90, 90, 90, 90, 90, 90, 90, 90, 90, 90, 90, 90, 90, 90, 90, 90, 90, 90]"
"Trust","Teilnehmer A hat Ihnen 2 Punkte übermittelt.","Payback","0","undefined","20","0","6","60","1080","431","10","2","1764","0","legacy","[11, 21, 31, 41, 51, 61, 71, 81, 91, 101, 111, 121, 131, 141, 151, 161, 171, 181, 191, 201, 211, 221, 231, 241, 251, 261, 271, 281, 291, 301, 311, 321, 331, 341, 351, 361, 371, 381, 391, 401, 411, 421, 431, 441, 451, 461, 471, 481, 491, 501, 511, 521, 531, 541, 551, 561, 571, 581, 591, 601, 611, 621, 631, 641, 651, 661, 671, 681, 691, 701, 711, 721, 731, 741, 751, 761, 771, 781, 791, 801, 811, 821, 831, 841, 851, 861, 871, 881, 891, 901, 911, 921, 931, 941, 951, 961, 971, 981, 991, 1001, 1011, 1021, 1031, 1041, 1051, 1061, 1071, 1081, 1091, 1101, 1111, 1121, 1131, 1141, 1151, 1161, 1171, 1181, 1191, 1201, 1211, 1221, 1231, 1241, 1251, 1261, 1271, 1281, 1291, 1301, 1311, 1321, 1331, 1341, 1351, 1361, 1371, 1381, 1391, 1401, 1411, 1421, 1431, 1441, 1451, 1461, 1471, 1481, 1491, 1501, 1511, 1521, 1531, 1541, 1551, 1561, 1571, 1581, 1591, 1601, 1611, 1621, 1631, 1641, 1651, 1661, 1671, 1681, 1691, 1701, 1711, 1721, 1731, 1741, 1751, 1761]","1097","1920","[960, 960, 960, 960, 960, 960, 960, 960, 960, 960, 960, 960, 960, 960, 960, 960, 960, 960, 960, 960, 960, 960, 960, 960, 960, 960, 960, 960, 960, 960, 960, 959, 959, 958, 958, 958, 957, 955, 954, 952, 951, 949, 948, 946, 945, 943, 940, 940, 937, 931, 928, 926, 921, 912, 910, 906, 902, 897, 896, 894, 891, 883, 879, 874, 869, 855, 849, 844, 839, 829, 824, 819, 814, 805, 802, 798, 794, 786, 782, 778, 774, 763, 757, 750, 744, 731, 726, 721, 716, 706, 701, 697, 690, 675, 666, 659, 651, 639, 633, 626, 617, 604, 596, 589, 579, 564, 556, 550, 544, 529, 523, 517, 509, 496, 489, 482, 476, 464, 460, 456, 452, 442, 438, 431, 425, 411, 405, 396, 390, 374, 368, 362, 358, 347, 343, 339, 334, 323, 319, 314, 309, 302, 297, 291, 285, 280, 276, 274, 272, 265, 263, 261, 258, 253, 252, 250, 249, 246, 245, 243, 242, 239, 238, 237, 237, 236, 236, 236, 236, 235, 235, 235, 235, 235, 235, 235]","[1010, 1010, 1010, 1010, 1010, 1010, 1010, 1010, 1010, 1010, 1010, 1010, 1010, 1010, 1010, 1010, 1010, 1010, 1010, 1010, 1010, 1010, 1010, 1010, 1010, 1010, 1010, 1010, 1009, 1005, 1003, 1002, 999, 995, 991, 991, 986, 981, 975, 970, 965, 948, 939, 930, 920, 899, 889, 881, 871, 853, 843, 835, 825, 805, 796, 789, 779, 762, 755, 747, 739, 720, 712, 702, 691, 667, 656, 647, 639, 621, 612, 602, 593, 574, 566, 558, 548, 531, 521, 512, 502, 482, 471, 461, 452, 433, 425, 419, 410, 397, 389, 383, 375, 361, 355, 348, 344, 333, 329, 325, 319, 309, 305, 299, 295, 285, 280, 276, 272, 261, 257, 254, 247, 239, 235, 231, 228, 221, 219, 216, 213, 208, 205, 201, 198, 192, 189, 185, 183, 177, 174, 171, 168, 164, 161, 158, 155, 151, 150, 147, 145, 141, 140, 137, 135, 131, 131, 129, 128, 126, 124, 124, 123, 120, 120, 120, 119, 117, 117, 117, 117, 116, 116, 116, 115, 115, 115, 115, 115, 115, 115, 115, 115, 115, 115, 115]"
"Promise","Wie oft werden Sie die Hälfte zurückgeben?","Promise","1","undefined","20","0","7","60","1080","451","10","1","2024","0","legacy","[11, 21, 31, 41, 51, 61, 71, 81, 91, 101, 111, 121, 131, 141, 151, 161, 171, 181, 191, 201, 211, 221, 231, 241, 251, 261, 271, 281, 291, 301, 311, 321, 331, 341, 351, 361, 371, 381, 391, 401, 411, 421, 431, 441, 451, 461, 471, 481, 491, 501, 511, 521, 531, 541, 551, 561, 571, 581, 591, 601, 611, 621, 631, 641, 651, 661, 671, 681, 691, 701, 711, 721, 731, 741, 751, 761, 771, 781, 791, 801, 811, 821, 831, 841, 851, 861, 871, 881, 891, 901, 911, 921, 931, 941, 951, 961, 971, 981, 991, 1001, 1011, 1021, 1031, 1041, 1051, 1061, 1071, 1081, 1091, 1101, 1111, 1121, 1131, 1141, 1151, 1161, 1171, 1181, 1191, 1201, 1211, 1221, 1231, 1241, 1251, 1261, 1271, 1281, 1291, 1301, 1311, 1321, 1331, 1341, 1351, 1361, 1371, 1381, 1391, 1401, 1411, 1421, 1431, 1441, 1451, 1461, 1471, 1481, 1491, 1501, 1511, 1521, 1531, 1541, 1551, 1561, 1571, 1581, 1591, 1601, 1611, 1621, 1631, 1641, 1651, 1661, 1671, 1681, 1691, 1701, 1711, 1721, 1731, 1741, 1751, 1761, 1771, 1781, 1791, 1801, 1811, 1821, 1831, 1841, 1851, 1861, 1871, 1881, 1891, 1901, 1911, 1921, 1931, 1941, 1951, 1961, 1971, 1981, 1991, 2001, 2011, 2021]","1097","1920","[960, 960, 960, 960, 960, 960, 960, 960, 960, 960, 960, 960, 960, 960, 960, 960, 960, 960, 960, 960, 960, 960, 960, 960, 960, 960, 960, 960, 960, 961, 961, 961, 963, 964, 964, 965, 966, 967, 968, 970, 972, 972, 973, 974, 976, 977, 978, 980, 982, 982, 986, 989, 990, 991, 995, 1001, 1004, 1008, 1013, 1026, 1031, 1038, 1044, 1055, 1060, 1063, 1067, 1077, 1082, 1086, 1091, 1100, 1105, 1109, 1114, 1119, 1123, 1125, 1128, 1133, 1135, 1137, 1139, 1146, 1150, 1153, 1157, 1164, 1168, 1171, 1175, 1179, 1184, 1185, 1189, 1196, 1200, 1204, 1208, 1214, 1218, 1223, 1228, 1239, 1247, 1254, 1263, 1277, 1285, 1293, 1300, 1318, 1326, 1336, 1345, 1364, 1372, 1381, 1386, 1397, 1403, 1409, 1416, 1428, 1431, 1436, 1442, 1450, 1455, 1459, 1466, 1475, 1481, 1485, 1491, 1500, 1505, 1511, 1516, 1526, 1532, 1536, 1542, 1557, 1563, 1569, 1575, 1584, 1587, 1593, 1595, 1601, 1603, 1606, 1608, 1612, 1617, 1619, 1621, 1629, 1635, 1638, 1644, 1653, 1656, 1660, 1663, 1668, 1672, 1676, 1681, 1687, 1691, 1696, 1698, 1703, 1705, 1708, 1709, 1713, 1715, 1716, 1717, 1719, 1721, 1721, 1721, 1721, 1721, 1721, 1721, 1721, 1721, 1721, 1721, 1721, 1721, 1721, 1721, 1721, 1721, 1721]","[1010, 1010, 1010, 1010, 1010, 1010, 1010, 1010, 1010, 1010, 1010, 1010, 1010, 1010, 1010, 1010, 1010, 1010, 1009, 1009, 1008, 1007, 1006, 1004, 1003, 1003, 1001, 998, 997, 994, 993, 990, 987, 986, 983, 978, 975, 971, 968, 962, 958, 954, 950, 941, 936, 932, 927, 919, 914, 909, 902, 891, 886, 880, 874, 861, 853, 845, 837, 817, 811, 802, 793, 778, 770, 764, 759, 748, 741, 735, 728, 715, 707, 701, 695, 684, 678, 675, 670, 658, 652, 646, 641, 629, 622, 617, 611, 597, 591, 584, 578, 566, 557, 553, 545, 536, 531, 525, 520, 509, 503, 496, 489, 475, 466, 457, 448, 429, 421, 414, 405, 388, 380, 371, 363, 344, 334, 323, 316, 299, 292, 284, 278, 264, 258, 252, 245, 233, 227, 221, 214, 202, 194, 189, 183, 173, 168, 163, 159, 151, 146, 142, 137, 127, 122, 120, 116, 108, 107, 104, 102, 99, 98, 97, 96, 94, 92, 91, 90, 87, 84, 83, 82, 78, 78, 77, 77, 74, 73, 72, 71, 69, 69, 68, 68, 66, 65, 65, 64, 64, 63, 63, 63, 63, 62, 62, 62, 62, 62, 62, 62, 62, 62, 62, 62, 62, 62, 62, 62, 62, 62, 62]"
"Trust","Teilnehmer A hat Ihnen 2 Punkte übermittelt.","Payback","0","undefined","21","0","7","60","1080","371","10","2","1612","0","legacy","[11, 21, 31, 41, 51, 61, 71, 81, 91, 101, 111, 121, 131, 141, 151, 161, 171, 181, 191, 201, 211, 221, 231, 241, 251, 261, 271, 281, 291, 301, 311, 321, 331, 341, 351, 361, 371, 381, 391, 401, 411, 421, 431, 441, 451, 461, 471, 481, 491, 501, 511, 521, 531, 541, 551, 561, 571, 581, 591, 601, 611, 621, 631, 641, 651, 661, 671, 681, 691, 701, 711, 721, 731, 741, 751, 761, 771, 781, 791, 801, 811, 821, 831, 841, 851, 861, 871, 881, 891, 901, 911, 921, 931, 941, 951, 961, 971, 981, 991, 1001, 1011, 1021, 1031, 1041, 1051, 1061, 1071, 1081, 1091, 1101, 1111, 1121, 1131, 1141, 1151, 1161, 1171, 1181, 1191, 1201, 1211, 1221, 1231, 1241, 1251, 1261, 1271, 1281, 1291, 1301, 1311, 1321, 1331, 1341, 1351, 1361, 1371, 1381, 1391, 1401, 1411, 1421, 1431, 1441, 1451, 1461, 1471, 1481, 1491, 1501, 1511, 1521, 1531, 1541, 1551, 1561, 1571, 1581, 1591, 1601, 1611]","1097","1920","[960, 960, 960, 960, 960, 960, 960, 960, 960, 960, 960, 960, 960, 960, 960, 960, 960, 960, 960, 960, 960, 960, 960, 960, 960, 959, 959, 959, 958, 956, 956, 956, 956, 954, 952, 950, 946, 941, 939, 938, 934, 932, 930, 927, 926, 920, 914, 909, 904, 898, 895, 893, 891, 885, 882, 880, 876, 870, 866, 864, 860, 852, 849, 844, 839, 828, 823, 817, 810, 798, 792, 786, 780, 769, 763, 758, 751, 739, 731, 724, 719, 707, 700, 695, 689, 675, 670, 665, 658, 649, 644, 639, 635, 623, 616, 610, 604, 589, 583, 576, 568, 552, 544, 538, 528, 510, 501, 493, 485, 469, 463, 458, 452, 444, 437, 430, 422, 407, 402, 396, 390, 381, 375, 370, 366, 354, 349, 343, 335, 323, 315, 310, 304, 294, 288, 285, 280, 271, 268, 264, 258, 246, 240, 235, 229, 219, 215, 208, 207, 200, 199, 198, 198, 198, 198, 198, 198, 198, 198, 198, 198]","[1010, 1010, 1010, 1010, 1010, 1010, 1010, 1010, 1010, 1010, 1010, 1010, 1010, 1010, 1010, 1010, 1010, 1010, 1010, 1010, 1010, 1010, 1008, 1008, 1006, 1002, 999, 998, 995, 988, 986, 983, 978, 966, 957, 950, 939, 922, 912, 902, 891, 866, 855, 842, 831, 792, 772, 753, 738, 717, 706, 699, 689, 673, 666, 659, 651, 640, 634, 630, 622, 612, 608, 600, 593, 575, 565, 555, 545, 528, 518, 511, 502, 485, 477, 467, 458, 441, 431, 422, 415, 398, 388, 382, 373, 358, 351, 345, 338, 326, 321, 316, 313, 302, 297, 292, 286, 275, 270, 265, 261, 249, 243, 239, 235, 225, 221, 215, 211, 201, 197, 195, 191, 186, 182, 176, 172, 166, 164, 160, 157, 154, 151, 149, 145, 141, 139, 136, 134, 129, 127, 125, 122, 119, 117, 117, 116, 113, 112, 111, 111, 108, 108, 108, 107, 106, 105, 104, 103, 103, 102, 102, 102, 102, 102, 102, 102, 102, 102, 102, 102]"
"Trust","Teilnehmer A hat Ihnen 2 Punkte übermittelt.","Payback","0","undefined","22","0","7","60","1080","411","10","2","1871","0","legacy","[11, 21, 31, 41, 51, 61, 71, 81, 91, 101, 111, 121, 131, 141, 151, 161, 171, 181, 191, 201, 211, 221, 231, 241, 251, 261, 271, 281, 291, 301, 311, 321, 331, 341, 351, 361, 371, 381, 391, 401, 411, 421, 431, 441, 451, 461, 471, 481, 491, 501, 511, 521, 531, 541, 551, 561, 571, 581, 591, 601, 611, 621, 631, 641, 651, 661, 671, 681, 691, 701, 711, 721, 731, 741, 751, 761, 771, 781, 791, 801, 811, 821, 831, 841, 851, 861, 871, 881, 891, 901, 911, 921, 931, 941, 951, 961, 971, 981, 991, 1001, 1011, 1021, 1031, 1041, 1051, 1061, 1071, 1081, 1091, 1101, 1111, 1121, 1131, 1141, 1151, 1161, 1171, 1181, 1191, 1201, 1211, 1221, 1231, 1241, 1251, 1261, 1271, 1281, 1291, 1301, 1311, 1321, 1331, 1341, 1351, 1361, 1371, 1381, 1391, 1401, 1411, 1421, 1431, 1441, 1451, 1461, 1471, 1481, 1491, 1501, 1511, 1521, 1531, 1541, 1551, 1561, 1571, 1581, 1591, 1601, 1611, 1621, 1631, 1641, 1651, 1661, 1671, 1681, 1691, 1701, 1711, 1721, 1731, 1741, 1751, 1761, 1771, 1781, 1791, 1801, 1811, 1821, 1831, 1841, 1851, 1861, 1871]","1097","1920","[960, 960, 960, 960, 960, 960, 960, 960, 960, 960, 960, 960, 960, 960, 960, 960, 960, 960, 960, 960, 960, 960, 960, 960, 960, 960, 960, 960, 960, 960, 960, 959, 958, 955, 955, 953, 953, 953, 953, 951, 950, 948, 945, 941, 940, 939, 938, 936, 935, 935, 934, 934, 934, 932, 931, 929, 927, 926, 925, 922, 921, 920, 920, 918, 916, 915, 911, 904, 900, 895, 893, 885, 883, 878, 874, 865, 858, 852, 847, 832, 825, 815, 805, 783, 769, 758, 746, 719, 705, 695, 686, 669, 661, 654, 645, 632, 625, 620, 613, 606, 601, 593, 589, 583, 577, 573, 569, 558, 554, 547, 539, 525, 520, 514, 507, 494, 488, 483, 476, 464, 459, 451, 445, 433, 423, 417, 409, 393, 384, 374, 365, 348, 340, 333, 326, 314, 308, 305, 299, 290, 286, 281, 278, 271, 269, 265, 260, 252, 245, 240, 235, 230, 228, 227, 226, 223, 221, 220, 219, 217, 216, 215, 215, 214, 214, 214, 214, 214, 214, 214, 214, 214, 214, 214, 214, 214, 214, 214, 214, 214, 214, 214, 214, 214, 214, 214, 214]","[1010, 1010, 1010, 1010, 1010, 1010, 1010, 1010, 1010, 1010, 1010, 1010, 1010, 1010, 1010, 1010, 1010, 1010, 1010, 1009, 1007, 1007, 1006, 1003, 1001, 999, 997, 993, 991, 988, 985, 977, 974, 968, 966, 959, 956, 955, 951, 941, 935, 929, 923, 910, 904, 900, 895, 886, 882, 879, 874, 865, 861, 855, 849, 837, 832, 828, 823, 813, 807, 803, 798, 787, 781, 775, 766, 750, 743, 734, 728, 712, 706, 698, 688, 666, 655, 644, 631, 605, 589, 573, 554, 518, 494, 473, 458, 418, 399, 386, 376, 354, 345, 335, 327, 308, 302, 296, 288, 277, 273, 270, 265, 258, 253, 250, 245, 235, 231, 226, 220, 209, 205, 200, 195, 186, 182, 178, 173, 165, 162, 158, 154, 148, 144, 142, 138, 131, 128, 123, 121, 117, 115, 113, 112, 108, 107, 106, 105, 101, 101, 100, 100, 99, 99, 98, 98, 97, 96, 96, 95, 94, 94, 94, 94, 94, 94, 94, 94, 94, 94, 94, 94, 94, 94, 94, 94, 94, 94, 94, 94, 94, 94, 94, 94, 94, 94, 94, 94, 94, 94, 94, 94, 94, 94, 94, 94]"
"Trust","Teilnehmer A hat Ihnen 2 Punkte übermittelt.","Payback","0","undefined","23","0","7","60","1080","621","10","2","2062","0","legacy","[11, 21, 31, 41, 51, 61, 71, 81, 91, 101, 111, 121, 131, 141, 151, 161, 171, 181, 191, 201, 211, 221, 231, 241, 251, 261, 271, 281, 291, 301, 311, 321, 331, 341, 351, 361, 371, 381, 391, 401, 411, 421, 431, 441, 451, 461, 471, 481, 491, 501, 511, 521, 531, 541, 551, 561, 571, 581, 591, 601, 611, 621, 631, 641, 651, 661, 671, 681, 691, 701, 711, 721, 731, 741, 751, 761, 771, 781, 791, 801, 811, 821, 831, 841, 851, 861, 871, 881, 891, 901, 911, 921, 931, 941, 951, 961, 971, 981, 991, 1001, 1011, 1021, 1031, 1041, 1051, 1061, 1071, 1081, 1091, 1101, 1111, 1121, 1131, 1141, 1151, 1161, 1171, 1181, 1191, 1201, 1211, 1221, 1231, 1241, 1251, 1261, 1271, 1281, 1291, 1301, 1311, 1321, 1331, 1341, 1351, 1361, 1371, 1381, 1391, 1401, 1411, 1421, 1431, 1441, 1451, 1461, 1471, 1481, 1491, 1501, 1511, 1521, 1531, 1541, 1551, 1561, 1571, 1581, 1591, 1601, 1611, 1621, 1631, 1641, 1651, 1661, 1671, 1681, 1691, 1701, 1711, 1721, 1731, 1741, 1751, 1761, 1771, 1781, 1791, 1801, 1811, 1821, 1831, 1841, 1851, 1861, 1871, 1881, 1891, 1901, 1911, 1921, 1931, 1941, 1951, 1961, 1971, 1981, 1991, 2001, 2011, 2021, 2031, 2041, 2051, 2061]","1097","1920","[960, 960, 960, 960, 960, 960, 960, 960, 960, 960, 960, 960, 960, 960, 960, 960, 960, 960, 960, 960, 960, 960, 960, 960, 960, 960, 960, 960, 960, 960, 960, 960, 960, 960, 960, 960, 960, 960, 959, 958, 958, 958, 957, 957, 957, 957, 957, 957, 956, 956, 956, 954, 954, 954, 953, 952, 952, 950, 949, 949, 948, 945, 943, 941, 940, 937, 935, 935, 932, 931, 928, 927, 926, 924, 921, 919, 918, 917, 912, 909, 907, 906, 897, 893, 886, 880, 869, 864, 858, 852, 841, 837, 832, 829, 821, 815, 810, 804, 794, 789, 784, 777, 765, 760, 753, 745, 732, 727, 721, 714, 699, 692, 684, 679, 669, 665, 660, 655, 645, 640, 634, 628, 611, 602, 593, 586, 567, 555, 544, 535, 513, 503, 493, 483, 465, 455, 445, 436, 418, 410, 403, 393, 374, 366, 359, 352, 337, 329, 323, 316, 300, 292, 285, 278, 267, 262, 256, 251, 244, 239, 234, 230, 224, 220, 216, 214, 208, 204, 203, 199, 195, 193, 193, 190, 187, 184, 182, 181, 179, 179, 179, 179, 179, 179, 179, 179, 179, 179, 179, 179, 179, 179, 179, 179, 179, 179, 179, 179, 179, 179, 179, 179, 179, 179, 179, 179]","[1010, 1010, 1010, 1010, 1010, 1010, 1010, 1010, 1010, 1010, 1010, 1010, 1010, 1010, 1010, 1010, 1010, 1010, 1010, 1010, 1010, 1010, 1010, 1010, 1010, 1010, 1010, 1010, 1010, 1010, 1010, 1010, 1010, 1009, 1008, 1007, 1005, 1005, 1001, 999, 998, 997, 994, 994, 992, 990, 985, 983, 980, 979, 973, 969, 968, 965, 959, 956, 953, 951, 946, 945, 942, 938, 932, 928, 925, 920, 913, 910, 905, 902, 894, 890, 885, 881, 869, 864, 858, 853, 837, 828, 821, 815, 797, 785, 775, 765, 746, 736, 726, 717, 701, 695, 686, 679, 664, 656, 646, 637, 623, 616, 609, 601, 585, 576, 566, 556, 538, 531, 523, 514, 495, 487, 478, 471, 459, 454, 447, 442, 429, 423, 416, 408, 392, 385, 379, 373, 359, 351, 344, 336, 321, 316, 310, 302, 294, 288, 284, 278, 267, 263, 257, 253, 242, 239, 234, 229, 221, 217, 213, 208, 199, 194, 190, 185, 176, 173, 167, 162, 156, 152, 148, 144, 139, 135, 133, 130, 125, 123, 121, 119, 116, 113, 113, 110, 108, 106, 104, 103, 102, 102, 102, 102, 102, 102, 102, 102, 102, 102, 102, 102, 102, 102, 102, 102, 102, 102, 102, 102, 102, 102, 102, 102, 102, 102, 102, 102]"
CHF,TotCHF,final_payoff,sum
"15","35","[5, 5, 10, 10]","30"
