Condition,PromiseStage,Stage,accuracy,avg_rt,count_decision_sequence,count_loop1,count_trial_sequence,font_size,height,init_time,payoff,response,rt,subject_nr,synth_backend,tTrajectory,time_experiment,width,xTrajectory,yTrajectory
"Promise","Wie oft werden Sie die Hälfte zurückgeben?","Promise","1","undefined","NA","0","0","60","1080","1671","NA","1","2598","0","legacy","[11, 21, 31, 41, 51, 61, 71, 81, 91, 101, 111, 121, 131, 141, 151, 161, 171, 181, 191, 201, 211, 221, 231, 241, 251, 261, 271, 281, 291, 301, 311, 321, 331, 341, 351, 361, 371, 381, 391, 401, 411, 421, 431, 441, 451, 461, 471, 481, 491, 501, 511, 521, 531, 541, 551, 561, 571, 581, 591, 601, 611, 621, 631, 641, 651, 661, 671, 681, 691, 701, 711, 721, 731, 741, 751, 761, 771, 781, 791, 801, 811, 821, 831, 841, 851, 861, 871, 881, 891, 901, 911, 921, 931, 941, 951, 961, 971, 981, 991, 1001, 1011, 1021, 1031, 1041, 1051, 1061, 1071, 1081, 1091, 1101, 1111, 1121, 1131, 1141, 1151, 1161, 1171, 1181, 1191, 1201, 1211, 1221, 1231, 1241, 1251, 1261, 1271, 1281, 1291, 1301, 1311, 1321, 1331, 1341, 1351, 1361, 1371, 1381, 1391, 1401, 1411, 1421, 1431, 1441, 1451, 1461, 1471, 1481, 1491, 1501, 1511, 1521, 1531, 1541, 1551, 1561, 1571, 1581, 1591, 1601, 1611, 1621, 1631, 1641, 1651, 1661, 1671, 1681, 1691, 1701, 1711, 1721, 1731, 1741, 1751, 1761, 1771, 1781, 1791, 1801, 1811, 1821, 1831, 1841, 1851, 1861, 1871, 1881, 1891, 1901, 1911, 1921, 1931, 1941, 1951, 1961, 1971, 1981, 1991, 2001, 2011, 2021, 2031, 2041, 2051, 2061, 2071, 2081, 2091, 2101, 2111, 2121, 2131, 2141, 2151, 2161, 2171, 2181, 2191, 2201, 2211, 2221, 2231, 2241, 2251, 2261, 2271, 2281, 2291, 2301, 2311, 2321, 2331, 2341, 2351, 2361, 2371, 2381, 2391, 2401, 2411, 2421, 2431, 2441, 2451, 2461, 2471, 2481, 2491, 2501, 2511, 2521, 2531, 2541, 2551, 2561, 2571, 2581, 2591]","1061","1920","[960, 960, 960, 960, 960, 960, 960, 960, 960, 960, 960, 960, 960, 960, 960, 960, 960, 960, 960, 960, 960, 960, 960, 960, 960, 960, 960, 960, 960, 960, 960, 960, 960, 960, 960, 960, 960, 960, 960, 960, 960, 960, 960, 960, 960, 960, 960, 960, 960, 960, 960, 960, 960, 960, 960, 960, 960, 960, 960, 960, 960, 960, 960, 960, 960, 960, 960, 960, 960, 960, 960, 960, 960, 960, 960, 960, 960, 960, 960, 960, 960, 960, 960, 960, 960, 960, 960, 960, 960, 960, 960, 960, 960, 960, 960, 960, 960, 960, 960, 960, 960, 960, 960, 960, 960, 960, 960, 960, 960, 960, 960, 960, 960, 960, 960, 960, 960, 960, 960, 960, 960, 960, 960, 960, 960, 960, 960, 960, 960, 960, 960, 960, 960, 960, 960, 960, 960, 960, 960, 960, 960, 960, 960, 960, 960, 960, 960, 960, 960, 960, 960, 960, 960, 960, 960, 960, 960, 960, 960, 960, 960, 960, 960, 960, 958, 956, 930, 903, 870, 834, 756, 714, 672, 639, 578, 556, 524, 485, 418, 393, 374, 360, 344, 335, 328, 322, 309, 300, 291, 277, 250, 229, 212, 199, 170, 163, 157, 153, 153, 151, 151, 150, 148, 148, 148, 148, 148, 148, 148, 148, 148, 148, 148, 148, 148, 148, 148, 148, 148, 148, 148, 148, 148, 148, 148, 148, 148, 148, 148, 148, 148, 148, 148, 148, 148, 148, 148, 148, 148, 148, 148, 148, 148, 148, 148, 148, 148, 148, 148, 148, 148, 148, 148, 148, 148, 148, 148, 148, 148]","[1010, 1010, 1010, 1010, 1010, 1010, 1010, 1010, 1010, 1010, 1010, 1010, 1010, 1010, 1010, 1010, 1010, 1010, 1010, 1010, 1010, 1010, 1010, 1010, 1010, 1010, 1010, 1010, 1010, 1010, 1010, 1010, 1010, 1010, 1010, 1010, 1010, 1010, 1010, 1010, 1010, 1010, 1010, 1010, 1010, 1010, 1010, 1010, 1010, 1010, 1010, 1010, 1010, 1010, 1010, 1010, 1010, 1010, 1010, 1010, 1010, 1010, 1010, 1010, 1010, 1010, 1010, 1010, 1010, 1010, 1010, 1010, 1010, 1010, 1010, 1010, 1010, 1010, 1010, 1010, 1010, 1010, 1010, 1010, 1010, 1010, 1010, 1010, 1010, 1010, 1010, 1010, 1010, 1010, 1010, 1010, 1010, 1010, 1010, 1010, 1010, 1010, 1010, 1010, 1010, 1010, 1010, 1010, 1010, 1010, 1010, 1010, 1010, 1010, 1010, 1010, 1010, 1010, 1010, 1010, 1010, 1010, 1010, 1010, 1010, 1010, 1009, 1009, 1009, 1009, 1009, 1009, 1009, 1009, 1009, 1009, 1009, 1009, 1009, 1009, 1009, 1009, 1009, 1009, 1009, 1009, 1009, 1009, 1009, 1009, 1009, 1009, 1009, 1009, 1009, 1009, 1009, 1009, 1009, 1009, 1009, 1009, 1007, 1005, 998, 988, 926, 866, 801, 728, 572, 506, 445, 396, 319, 293, 267, 238, 191, 174, 163, 154, 146, 142, 140, 136, 131, 127, 124, 118, 110, 106, 100, 97, 87, 84, 80, 78, 78, 77, 77, 75, 75, 75, 75, 75, 75, 75, 75, 75, 75, 75, 75, 75, 75, 75, 75, 75, 75, 75, 75, 75, 75, 75, 75, 75, 75, 75, 75, 75, 75, 75, 75, 75, 75, 75, 75, 75, 75, 75, 75, 75, 75, 75, 75, 75, 75, 75, 75, 75, 75, 75, 75, 75, 75, 75, 75, 75, 75]"
Cond,DecisionB,Stage,accuracy,avg_rt,count_decision_sequence,count_loop1,count_trial_sequence,font_size,height,init_time,payoff,response,rt,subject_nr,synth_backend,tTrajectory,time_experiment,width,xTrajectory,yTrajectory
"Trust","Teilnehmer A hat Ihnen 2 Punkte übermittelt.","Payback","1","undefined","0","0","0","60","1080","331","5","1","1804","0","legacy","[11, 21, 31, 41, 51, 61, 71, 81, 91, 101, 111, 121, 131, 141, 151, 161, 171, 181, 191, 201, 211, 221, 231, 241, 251, 261, 271, 281, 291, 301, 311, 321, 331, 341, 351, 361, 371, 381, 391, 401, 411, 421, 431, 441, 451, 461, 471, 481, 491, 501, 511, 521, 531, 541, 551, 561, 571, 581, 591, 601, 611, 621, 631, 641, 651, 661, 671, 681, 691, 701, 711, 721, 731, 741, 751, 761, 771, 781, 791, 801, 811, 821, 831, 841, 851, 861, 871, 881, 891, 901, 911, 921, 931, 941, 951, 961, 971, 981, 991, 1001, 1011, 1021, 1031, 1041, 1051, 1061, 1071, 1081, 1091, 1101, 1111, 1121, 1131, 1141, 1151, 1161, 1171, 1181, 1191, 1201, 1211, 1221, 1231, 1241, 1251, 1261, 1271, 1281, 1291, 1301, 1311, 1321, 1331, 1341, 1351, 1361, 1371, 1381, 1391, 1401, 1411, 1421, 1431, 1441, 1451, 1461, 1471, 1481, 1491, 1501, 1511, 1521, 1531, 1541, 1551, 1561, 1571, 1581, 1591, 1601, 1611, 1621, 1631, 1641, 1651, 1661, 1671, 1681, 1691, 1701, 1711, 1721, 1731, 1741, 1751, 1761, 1771, 1781, 1791, 1801]","1061","1920","[960, 960, 960, 960, 960, 960, 960, 960, 960, 960, 960, 960, 960, 960, 960, 960, 961, 962, 962, 963, 964, 964, 965, 967, 968, 969, 971, 971, 972, 972, 972, 972, 972, 972, 971, 971, 971, 971, 971, 971, 971, 971, 971, 971, 971, 971, 971, 971, 971, 971, 971, 971, 971, 971, 970, 969, 967, 967, 967, 967, 967, 967, 967, 967, 965, 965, 961, 961, 960, 959, 959, 959, 959, 959, 959, 956, 956, 955, 952, 950, 947, 945, 945, 943, 941, 938, 937, 934, 934, 934, 933, 932, 930, 930, 929, 929, 928, 927, 927, 925, 925, 925, 925, 925, 925, 925, 925, 925, 925, 925, 925, 923, 923, 922, 920, 918, 917, 910, 907, 905, 902, 897, 892, 890, 884, 873, 864, 853, 840, 808, 787, 759, 733, 685, 665, 650, 635, 587, 549, 515, 494, 460, 450, 441, 432, 412, 402, 394, 385, 371, 365, 364, 360, 352, 347, 340, 333, 319, 313, 308, 304, 293, 290, 280, 274, 255, 243, 230, 217, 202, 197, 192, 188, 187, 186, 186, 186, 186, 186, 186]","[1010, 1010, 1010, 1010, 1010, 1010, 1010, 1010, 1010, 1010, 1010, 1010, 1010, 1010, 1010, 1010, 1010, 1006, 1005, 1002, 997, 986, 982, 977, 970, 964, 961, 961, 958, 951, 946, 941, 935, 920, 914, 907, 902, 893, 889, 885, 879, 867, 861, 854, 846, 829, 819, 812, 805, 795, 791, 786, 779, 765, 758, 751, 744, 726, 720, 712, 708, 697, 690, 683, 676, 658, 649, 641, 632, 620, 616, 612, 609, 604, 600, 596, 592, 582, 575, 570, 566, 560, 557, 553, 549, 542, 540, 535, 533, 529, 525, 523, 520, 517, 514, 513, 511, 507, 507, 504, 502, 499, 497, 495, 493, 489, 488, 485, 484, 482, 481, 478, 478, 473, 470, 468, 463, 454, 448, 446, 444, 441, 438, 438, 436, 428, 421, 412, 400, 375, 358, 337, 318, 290, 278, 271, 260, 234, 217, 205, 194, 184, 180, 178, 175, 170, 167, 164, 162, 159, 157, 157, 157, 157, 155, 154, 153, 150, 148, 147, 145, 140, 140, 136, 134, 127, 122, 116, 111, 104, 101, 101, 99, 97, 97, 97, 97, 97, 97, 97]"
"NoTrust","Teilnehmer A hat Ihnen keine 2 Punkte übermittelt.","Payback","1","undefined","1","0","0","60","1080","331","0","1","1804","0","legacy","[11, 21, 31, 41, 51, 61, 71, 81, 91, 101, 111, 121, 131, 141, 151, 161, 171, 181, 191, 201, 211, 221, 231, 241, 251, 261, 271, 281, 291, 301, 311, 321, 331, 341, 351, 361, 371, 381, 391, 401, 411, 421, 431, 441, 451, 461, 471, 481, 491, 501, 511, 521, 531, 541, 551, 561, 571, 581, 591, 601, 611, 621, 631, 641, 651, 661, 671, 681, 691, 701, 711, 721, 731, 741, 751, 761, 771, 781, 791, 801, 811, 821, 831, 841, 851, 861, 871, 881, 891, 901, 911, 921, 931, 941, 951, 961, 971, 981, 991, 1001, 1011, 1021, 1031, 1041, 1051, 1061, 1071, 1081, 1091, 1101, 1111, 1121, 1131, 1141, 1151, 1161, 1171, 1181, 1191, 1201, 1211, 1221, 1231, 1241, 1251, 1261, 1271, 1281, 1291, 1301, 1311, 1321, 1331, 1341, 1351, 1361, 1371, 1381, 1391, 1401, 1411, 1421, 1431, 1441, 1451, 1461, 1471, 1481, 1491, 1501, 1511, 1521, 1531, 1541, 1551, 1561, 1571, 1581, 1591, 1601, 1611, 1621, 1631, 1641, 1651, 1661, 1671, 1681, 1691, 1701, 1711, 1721, 1731, 1741, 1751, 1761, 1771, 1781, 1791, 1801]","1061","1920","[960, 960, 960, 960, 960, 960, 960, 960, 960, 960, 960, 960, 960, 960, 960, 960, 961, 962, 962, 963, 964, 964, 965, 967, 968, 969, 971, 971, 972, 972, 972, 972, 972, 972, 971, 971, 971, 971, 971, 971, 971, 971, 971, 971, 971, 971, 971, 971, 971, 971, 971, 971, 971, 971, 970, 969, 967, 967, 967, 967, 967, 967, 967, 967, 965, 965, 961, 961, 960, 959, 959, 959, 959, 959, 959, 956, 956, 955, 952, 950, 947, 945, 945, 943, 941, 938, 937, 934, 934, 934, 933, 932, 930, 930, 929, 929, 928, 927, 927, 925, 925, 925, 925, 925, 925, 925, 925, 925, 925, 925, 925, 923, 923, 922, 920, 918, 917, 910, 907, 905, 902, 897, 892, 890, 884, 873, 864, 853, 840, 808, 787, 759, 733, 685, 665, 650, 635, 587, 549, 515, 494, 460, 450, 441, 432, 412, 402, 394, 385, 371, 365, 364, 360, 352, 347, 340, 333, 319, 313, 308, 304, 293, 290, 280, 274, 255, 243, 230, 217, 202, 197, 192, 188, 187, 186, 186, 186, 186, 186, 186]","[1010, 1010, 1010, 1010, 1010, 1010, 1010, 1010, 1010, 1010, 1010, 1010, 1010, 1010, 1010, 1010, 1010, 1006, 1005, 1002, 997, 986, 982, 977, 970, 964, 961, 961, 958, 951, 946, 941, 935, 920, 914, 907, 902, 893, 889, 885, 879, 867, 861, 854, 846, 829, 819, 812, 805, 795, 791, 786, 779, 765, 758, 751, 744, 726, 720, 712, 708, 697, 690, 683, 676, 658, 649, 641, 632, 620, 616, 612, 609, 604, 600, 596, 592, 582, 575, 570, 566, 560, 557, 553, 549, 542, 540, 535, 533, 529, 525, 523, 520, 517, 514, 513, 511, 507, 507, 504, 502, 499, 497, 495, 493, 489, 488, 485, 484, 482, 481, 478, 478, 473, 470, 468, 463, 454, 448, 446, 444, 441, 438, 438, 436, 428, 421, 412, 400, 375, 358, 337, 318, 290, 278, 271, 260, 234, 217, 205, 194, 184, 180, 178, 175, 170, 167, 164, 162, 159, 157, 157, 157, 157, 155, 154, 153, 150, 148, 147, 145, 140, 140, 136, 134, 127, 122, 116, 111, 104, 101, 101, 99, 97, 97, 97, 97, 97, 97, 97]"
"Trust","Teilnehmer A hat Ihnen 2 Punkte übermittelt.","Payback","0","undefined","2","0","0","60","1080","741","10","2","2316","0","legacy","[11, 21, 31, 41, 51, 61, 71, 81, 91, 101, 111, 121, 131, 141, 151, 161, 171, 181, 191, 201, 211, 221, 231, 241, 251, 261, 271, 281, 291, 301, 311, 321, 331, 341, 351, 361, 371, 381, 391, 401, 411, 421, 431, 441, 451, 461, 471, 481, 491, 501, 511, 521, 531, 541, 551, 561, 571, 581, 591, 601, 611, 621, 631, 641, 651, 661, 671, 681, 691, 701, 711, 721, 731, 741, 751, 761, 771, 781, 791, 801, 811, 821, 831, 841, 851, 861, 871, 881, 891, 901, 911, 921, 931, 941, 951, 961, 971, 981, 991, 1001, 1011, 1021, 1031, 1041, 1051, 1061, 1071, 1081, 1091, 1101, 1111, 1121, 1131, 1141, 1151, 1161, 1171, 1181, 1191, 1201, 1211, 1221, 1231, 1241, 1251, 1261, 1271, 1281, 1291, 1301, 1311, 1321, 1331, 1341, 1351, 1361, 1371, 1381, 1391, 1401, 1411, 1421, 1431, 1441, 1451, 1461, 1471, 1481, 1491, 1501, 1511, 1521, 1531, 1541, 1551, 1561, 1571, 1581, 1591, 1601, 1611, 1621, 1631, 1641, 1651, 1661, 1671, 1681, 1691, 1701, 1711, 1721, 1731, 1741, 1751, 1761, 1771, 1781, 1791, 1801, 1811, 1821, 1831, 1841, 1851, 1861, 1871, 1881, 1891, 1901, 1911, 1921, 1931, 1941, 1951, 1961, 1971, 1981, 1991, 2001, 2011, 2021, 2031, 2041, 2051, 2061, 2071, 2081, 2091, 2101, 2111, 2121, 2131, 2141, 2151, 2161, 2171, 2181, 2191, 2201, 2211, 2221, 2231, 2241, 2251, 2261, 2271, 2281, 2291, 2301, 2311]","1061","1920","[960, 960, 960, 960, 960, 960, 960, 960, 960, 960, 960, 960, 960, 960, 960, 960, 960, 960, 960, 960, 960, 960, 960, 960, 960, 960, 960, 960, 960, 960, 960, 960, 960, 960, 960, 960, 960, 960, 960, 960, 960, 960, 960, 960, 960, 960, 960, 960, 960, 960, 960, 960, 960, 960, 960, 960, 960, 960, 960, 960, 960, 960, 960, 960, 960, 960, 960, 960, 960, 960, 960, 960, 960, 960, 960, 960, 960, 960, 960, 960, 960, 960, 960, 960, 960, 960, 960, 958, 958, 956, 956, 956, 956, 956, 956, 956, 956, 953, 952, 951, 951, 951, 951, 951, 951, 951, 951, 951, 951, 950, 948, 947, 947, 946, 946, 946, 945, 945, 943, 943, 943, 941, 940, 940, 938, 938, 937, 937, 937, 936, 936, 936, 935, 935, 935, 935, 935, 935, 935, 935, 935, 944, 951, 960, 970, 999, 1015, 1023, 1034, 1052, 1058, 1065, 1069, 1080, 1086, 1093, 1102, 1115, 1121, 1126, 1129, 1138, 1142, 1147, 1157, 1171, 1179, 1186, 1195, 1210, 1215, 1223, 1229, 1250, 1263, 1277, 1292, 1318, 1337, 1356, 1372, 1395, 1407, 1420, 1431, 1461, 1470, 1480, 1491, 1510, 1517, 1527, 1535, 1547, 1554, 1560, 1566, 1582, 1593, 1603, 1610, 1621, 1625, 1627, 1628, 1629, 1630, 1631, 1635, 1644, 1650, 1655, 1661, 1669, 1670, 1671, 1672, 1673, 1674, 1677, 1682, 1688, 1690, 1692, 1692, 1692, 1692, 1692, 1692, 1692, 1692]","[1010, 1010, 1010, 1010, 1010, 1010, 1010, 1010, 1010, 1010, 1010, 1010, 1010, 1010, 1010, 1010, 1010, 1010, 1010, 1010, 1010, 1010, 1010, 1010, 1010, 1010, 1010, 1010, 1010, 1010, 1010, 1010, 1010, 1010, 1010, 1010, 1010, 1010, 1010, 1010, 1010, 1010, 1010, 1010, 1010, 1010, 1010, 1010, 1010, 1008, 1006, 1003, 1002, 997, 995, 994, 991, 987, 984, 983, 981, 977, 976, 975, 973, 970, 967, 966, 961, 955, 952, 948, 947, 939, 934, 930, 925, 913, 908, 904, 899, 891, 887, 883, 879, 873, 871, 867, 862, 854, 849, 844, 840, 827, 822, 815, 806, 790, 780, 770, 763, 742, 732, 723, 714, 695, 684, 672, 660, 637, 624, 613, 606, 593, 588, 583, 578, 570, 564, 558, 551, 535, 526, 521, 516, 508, 503, 500, 498, 493, 492, 492, 492, 490, 488, 488, 486, 479, 473, 468, 459, 442, 434, 424, 414, 390, 376, 366, 353, 327, 319, 311, 306, 296, 291, 283, 276, 262, 256, 251, 246, 237, 235, 231, 226, 219, 215, 210, 207, 200, 198, 194, 192, 182, 176, 170, 163, 151, 139, 129, 119, 105, 99, 91, 85, 74, 70, 69, 65, 62, 60, 57, 54, 49, 46, 44, 41, 38, 36, 35, 35, 35, 35, 35, 35, 35, 35, 36, 38, 43, 45, 48, 49, 50, 52, 52, 52, 52, 53, 54, 57, 59, 60, 61, 61, 61, 61, 61, 61, 61, 61]"
"Promise","Wie oft werden Sie die Hälfte zurückgeben?","Promise","1","undefined","2","0","1","60","1080","251","10","1","1672","0","legacy","[11, 21, 31, 41, 51, 61, 71, 81, 91, 101, 111, 121, 131, 141, 151, 161, 171, 181, 191, 201, 211, 221, 231, 241, 251, 261, 271, 281, 291, 301, 311, 321, 331, 341, 351, 361, 371, 381, 391, 401, 411, 421, 431, 441, 451, 461, 471, 481, 491, 501, 511, 521, 531, 541, 551, 561, 571, 581, 591, 601, 611, 621, 631, 641, 651, 661, 671, 681, 691, 701, 711, 721, 731, 741, 751, 761, 771, 781, 791, 801, 811, 821, 831, 841, 851, 861, 871, 881, 891, 901, 911, 921, 931, 941, 951, 961, 971, 981, 991, 1001, 1011, 1021, 1031, 1041, 1051, 1061, 1071, 1081, 1091, 1101, 1111, 1121, 1131, 1141, 1151, 1161, 1171, 1181, 1191, 1201, 1211, 1221, 1231, 1241, 1251, 1261, 1271, 1281, 1291, 1301, 1311, 1321, 1331, 1341, 1351, 1361, 1371, 1381, 1391, 1401, 1411, 1421, 1431, 1441, 1451, 1461, 1471, 1481, 1491, 1501, 1511, 1521, 1531, 1541, 1551, 1561, 1571, 1581, 1591, 1601, 1611, 1621, 1631, 1641, 1651, 1661, 1671]","1061","1920","[960, 960, 960, 960, 960, 960, 960, 960, 960, 960, 960, 960, 960, 960, 960, 960, 960, 960, 960, 960, 960, 960, 960, 961, 963, 963, 963, 963, 963, 963, 963, 963, 963, 963, 963, 961, 959, 955, 951, 947, 944, 944, 943, 941, 941, 940, 939, 935, 933, 930, 928, 925, 925, 925, 925, 925, 925, 925, 925, 923, 922, 920, 920, 920, 920, 920, 919, 916, 914, 913, 913, 910, 910, 909, 909, 908, 908, 908, 906, 905, 903, 900, 900, 899, 897, 896, 896, 893, 891, 890, 888, 883, 881, 878, 876, 871, 866, 864, 859, 845, 837, 830, 823, 809, 801, 794, 782, 750, 732, 707, 684, 640, 620, 605, 594, 567, 554, 536, 523, 499, 491, 480, 470, 455, 449, 443, 436, 424, 421, 413, 407, 392, 385, 378, 370, 347, 330, 319, 308, 287, 279, 273, 265, 253, 245, 238, 229, 219, 215, 213, 213, 209, 207, 204, 198, 187, 184, 183, 182, 182, 182, 182, 182, 182, 182, 182, 182]","[1010, 1010, 1010, 1010, 1010, 1010, 1010, 1010, 1010, 1010, 1010, 1010, 1010, 1010, 1010, 1010, 1010, 1009, 1005, 998, 993, 986, 976, 954, 939, 919, 900, 871, 860, 855, 852, 849, 847, 843, 838, 827, 816, 806, 796, 784, 778, 772, 767, 755, 751, 746, 742, 730, 724, 717, 708, 693, 683, 672, 660, 630, 615, 603, 596, 580, 571, 565, 561, 552, 547, 540, 534, 519, 509, 502, 495, 485, 480, 479, 476, 471, 468, 465, 462, 451, 445, 438, 432, 428, 424, 422, 419, 410, 404, 401, 395, 382, 373, 367, 361, 347, 335, 329, 319, 299, 290, 282, 273, 258, 252, 245, 238, 210, 195, 177, 161, 123, 106, 95, 87, 70, 63, 55, 50, 42, 40, 37, 33, 26, 23, 20, 18, 16, 15, 15, 15, 15, 15, 15, 16, 19, 24, 28, 30, 36, 39, 41, 45, 50, 53, 55, 59, 59, 59, 59, 59, 61, 62, 64, 68, 75, 77, 77, 78, 78, 78, 78, 78, 78, 78, 78, 78]"
"Trust","Teilnehmer A hat Ihnen 2 Punkte übermittelt.","Payback","1","undefined","3","0","1","60","1080","301","5","1","1964","0","legacy","[11, 21, 31, 41, 51, 61, 71, 81, 91, 101, 111, 121, 131, 141, 151, 161, 171, 181, 191, 201, 211, 221, 231, 241, 251, 261, 271, 281, 291, 301, 311, 321, 331, 341, 351, 361, 371, 381, 391, 401, 411, 421, 431, 441, 451, 461, 471, 481, 491, 501, 511, 521, 531, 541, 551, 561, 571, 581, 591, 601, 611, 621, 631, 641, 651, 661, 671, 681, 691, 701, 711, 721, 731, 741, 751, 761, 771, 781, 791, 801, 811, 821, 831, 841, 851, 861, 871, 881, 891, 901, 911, 921, 931, 941, 951, 961, 971, 981, 991, 1001, 1011, 1021, 1031, 1041, 1051, 1061, 1071, 1081, 1091, 1101, 1111, 1121, 1131, 1141, 1151, 1161, 1171, 1181, 1191, 1201, 1211, 1221, 1231, 1241, 1251, 1261, 1271, 1281, 1291, 1301, 1311, 1321, 1331, 1341, 1351, 1361, 1371, 1381, 1391, 1401, 1411, 1421, 1431, 1441, 1451, 1461, 1471, 1481, 1491, 1501, 1511, 1521, 1531, 1541, 1551, 1561, 1571, 1581, 1591, 1601, 1611, 1621, 1631, 1641, 1651, 1661, 1671, 1681, 1691, 1701, 1711, 1721, 1731, 1741, 1751, 1761, 1771, 1781, 1791, 1801, 1811, 1821, 1831, 1841, 1851, 1861, 1871, 1881, 1891, 1901, 1911, 1921, 1931, 1941, 1951, 1961]","1061","1920","[960, 960, 960, 960, 960, 960, 960, 960, 960, 960, 960, 960, 960, 960, 960, 960, 960, 960, 960, 960, 960, 960, 960, 960, 960, 958, 957, 957, 956, 955, 952, 950, 949, 945, 943, 942, 940, 939, 939, 939, 939, 939, 939, 938, 938, 934, 933, 932, 932, 930, 929, 928, 925, 922, 917, 914, 912, 906, 904, 903, 902, 901, 900, 899, 899, 897, 894, 894, 893, 889, 888, 887, 886, 885, 884, 884, 882, 880, 877, 876, 871, 866, 862, 860, 855, 844, 841, 835, 832, 824, 819, 814, 810, 800, 794, 786, 779, 768, 765, 762, 760, 757, 757, 756, 752, 736, 727, 716, 703, 680, 674, 667, 659, 647, 644, 641, 641, 636, 632, 626, 620, 606, 598, 589, 580, 564, 556, 545, 532, 508, 497, 484, 475, 453, 443, 432, 420, 399, 389, 378, 369, 343, 333, 323, 311, 295, 286, 276, 272, 262, 256, 251, 247, 241, 238, 236, 236, 234, 231, 231, 228, 224, 224, 224, 224, 224, 224, 224, 224, 223, 223, 223, 223, 223, 223, 223, 223, 223, 223, 223, 223, 223, 223, 223, 223, 223, 223, 223, 223, 223, 223, 223, 223, 223, 223, 223]","[1010, 1010, 1010, 1010, 1010, 1010, 1010, 1010, 1010, 1010, 1010, 1010, 1010, 1010, 1010, 1010, 1010, 1010, 1010, 1010, 1010, 1010, 1010, 1007, 1000, 976, 967, 959, 948, 924, 912, 895, 883, 856, 845, 838, 831, 821, 817, 817, 816, 810, 805, 800, 797, 781, 775, 767, 759, 745, 739, 732, 725, 708, 695, 683, 670, 653, 647, 643, 638, 632, 630, 628, 625, 619, 614, 610, 607, 600, 595, 593, 590, 586, 584, 582, 578, 569, 560, 553, 544, 529, 520, 511, 505, 488, 483, 477, 472, 461, 454, 448, 443, 433, 429, 425, 422, 417, 415, 413, 413, 411, 411, 410, 409, 401, 395, 390, 382, 370, 365, 360, 356, 350, 348, 347, 346, 342, 340, 335, 329, 318, 310, 302, 294, 283, 279, 273, 268, 255, 248, 241, 236, 224, 218, 211, 205, 193, 188, 184, 180, 169, 162, 155, 148, 136, 130, 122, 117, 109, 105, 102, 100, 97, 95, 93, 92, 91, 90, 90, 90, 90, 90, 90, 90, 90, 90, 90, 90, 90, 90, 90, 90, 90, 90, 90, 90, 90, 90, 90, 90, 90, 90, 90, 90, 90, 90, 90, 90, 90, 90, 90, 90, 90, 90, 90]"
"Trust","Teilnehmer A hat Ihnen 2 Punkte übermittelt.","Payback","1","undefined","4","0","1","60","1080","381","5","1","2251","0","legacy","[11, 21, 31, 41, 51, 61, 71, 81, 91, 101, 111, 121, 131, 141, 151, 161, 171, 181, 191, 201, 211, 221, 231, 241, 251, 261, 271, 281, 291, 301, 311, 321, 331, 341, 351, 361, 371, 381, 391, 401, 411, 421, 431, 441, 451, 461, 471, 481, 491, 501, 511, 521, 531, 541, 551, 561, 571, 581, 591, 601, 611, 621, 631, 641, 651, 661, 671, 681, 691, 701, 711, 721, 731, 741, 751, 761, 771, 781, 791, 801, 811, 821, 831, 841, 851, 861, 871, 881, 891, 901, 911, 921, 931, 941, 951, 961, 971, 981, 991, 1001, 1011, 1021, 1031, 1041, 1051, 1061, 1071, 1081, 1091, 1101, 1111, 1121, 1131, 1141, 1151, 1161, 1171, 1181, 1191, 1201, 1211, 1221, 1231, 1241, 1251, 1261, 1271, 1281, 1291, 1301, 1311, 1321, 1331, 1341, 1351, 1361, 1371, 1381, 1391, 1401, 1411, 1421, 1431, 1441, 1451, 1461, 1471, 1481, 1491, 1501, 1511, 1521, 1531, 1541, 1551, 1561, 1571, 1581, 1591, 1601, 1611, 1621, 1631, 1641, 1651, 1661, 1671, 1681, 1691, 1701, 1711, 1721, 1731, 1741, 1751, 1761, 1771, 1781, 1791, 1801, 1811, 1821, 1831, 1841, 1851, 1861, 1871, 1881, 1891, 1901, 1911, 1921, 1931, 1941, 1951, 1961, 1971, 1981, 1991, 2001, 2011, 2021, 2031, 2041, 2051, 2061, 2071, 2081, 2091, 2101, 2111, 2121, 2131, 2141, 2151, 2161, 2171, 2181, 2191, 2201, 2211, 2221, 2231, 2241, 2251]","1061","1920","[960, 960, 960, 960, 960, 960, 960, 960, 960, 960, 960, 960, 960, 960, 960, 960, 960, 960, 960, 960, 960, 960, 960, 960, 960, 960, 960, 960, 960, 959, 958, 957, 955, 953, 951, 951, 950, 949, 949, 949, 949, 949, 949, 945, 944, 943, 941, 941, 941, 940, 940, 940, 940, 940, 940, 940, 940, 940, 940, 940, 940, 940, 940, 940, 940, 935, 934, 933, 933, 933, 933, 933, 933, 933, 933, 933, 933, 932, 930, 930, 930, 930, 930, 930, 930, 930, 929, 929, 927, 922, 920, 919, 918, 916, 916, 916, 915, 914, 912, 911, 911, 909, 908, 907, 907, 907, 907, 907, 906, 905, 905, 904, 903, 900, 898, 895, 894, 891, 888, 886, 884, 879, 875, 871, 863, 848, 843, 837, 833, 826, 825, 822, 821, 816, 812, 805, 796, 782, 776, 771, 767, 762, 761, 760, 758, 754, 748, 739, 728, 704, 692, 679, 668, 654, 648, 644, 639, 622, 610, 590, 561, 489, 465, 441, 423, 393, 384, 374, 371, 364, 360, 355, 349, 337, 329, 323, 318, 309, 306, 305, 302, 293, 289, 280, 272, 253, 245, 237, 232, 228, 228, 227, 227, 225, 223, 223, 222, 219, 218, 218, 218, 218, 218, 218, 218, 218, 218, 218, 218, 218, 218, 218, 218, 218, 218, 218, 218, 218, 218, 218, 218, 218, 218, 218, 218]","[1010, 1010, 1010, 1010, 1010, 1010, 1010, 1010, 1010, 1010, 1010, 1010, 1010, 1010, 1010, 1010, 1010, 1010, 1010, 1010, 1010, 1010, 1010, 1010, 1010, 1009, 1006, 1003, 999, 991, 989, 984, 979, 964, 954, 948, 941, 933, 930, 926, 923, 916, 908, 898, 886, 870, 864, 861, 857, 849, 844, 840, 835, 818, 807, 795, 783, 765, 761, 757, 752, 739, 730, 721, 709, 687, 676, 666, 658, 648, 644, 639, 635, 625, 619, 610, 599, 579, 568, 562, 558, 551, 548, 546, 543, 534, 528, 520, 512, 498, 492, 489, 486, 480, 479, 478, 477, 472, 470, 468, 466, 462, 459, 458, 457, 457, 456, 456, 456, 452, 451, 449, 445, 439, 434, 429, 425, 416, 411, 406, 399, 389, 385, 376, 366, 347, 339, 330, 324, 314, 310, 306, 303, 295, 291, 281, 270, 253, 246, 239, 233, 227, 226, 225, 223, 219, 214, 206, 198, 181, 173, 165, 159, 152, 149, 148, 147, 142, 141, 137, 133, 125, 120, 117, 115, 113, 111, 110, 108, 107, 106, 105, 105, 104, 104, 104, 104, 104, 103, 103, 103, 102, 101, 101, 101, 101, 101, 101, 100, 99, 99, 99, 99, 99, 99, 99, 99, 99, 99, 99, 99, 99, 99, 99, 99, 99, 99, 99, 99, 99, 99, 99, 99, 99, 99, 99, 99, 99, 99, 99, 99, 99, 99, 99, 99]"
"Trust","Teilnehmer A hat Ihnen 2 Punkte übermittelt.","Payback","0","undefined","5","0","1","60","1080","521","10","2","2493","0","legacy","[11, 21, 31, 41, 51, 61, 71, 81, 91, 101, 111, 121, 131, 141, 151, 161, 171, 181, 191, 201, 211, 221, 231, 241, 251, 261, 271, 281, 291, 301, 311, 321, 331, 341, 351, 361, 371, 381, 391, 401, 411, 421, 431, 441, 451, 461, 471, 481, 491, 501, 511, 521, 531, 541, 551, 561, 571, 581, 591, 601, 611, 621, 631, 641, 651, 661, 671, 681, 691, 701, 711, 721, 731, 741, 751, 761, 771, 781, 791, 801, 811, 821, 831, 841, 851, 861, 871, 881, 891, 901, 911, 921, 931, 941, 951, 961, 971, 981, 991, 1001, 1011, 1021, 1031, 1041, 1051, 1061, 1071, 1081, 1091, 1101, 1111, 1121, 1131, 1141, 1151, 1161, 1171, 1181, 1191, 1201, 1211, 1221, 1231, 1241, 1251, 1261, 1271, 1281, 1291, 1301, 1311, 1321, 1331, 1341, 1351, 1361, 1371, 1381, 1391, 1401, 1411, 1421, 1431, 1441, 1451, 1461, 1471, 1481, 1491, 1501, 1511, 1521, 1531, 1541, 1551, 1561, 1571, 1581, 1591, 1601, 1611, 1621, 1631, 1641, 1651, 1661, 1671, 1681, 1691, 1701, 1711, 1721, 1731, 1741, 1751, 1761, 1771, 1781, 1791, 1801, 1811, 1821, 1831, 1841, 1851, 1861, 1871, 1881, 1891, 1901, 1911, 1921, 1931, 1941, 1951, 1961, 1971, 1981, 1991, 2001, 2011, 2021, 2031, 2041, 2051, 2061, 2071, 2081, 2091, 2101, 2111, 2121, 2131, 2141, 2151, 2161, 2171, 2181, 2191, 2201, 2211, 2221, 2231, 2241, 2251, 2261, 2271, 2281, 2291, 2301, 2311, 2321, 2331, 2341, 2351, 2361, 2371, 2381, 2391, 2401, 2411, 2421, 2431, 2441, 2451, 2461, 2471, 2481, 2491]","1061","1920","[960, 960, 960, 960, 960, 960, 960, 960, 960, 960, 960, 960, 960, 960, 960, 960, 960, 960, 960, 960, 960, 960, 960, 960, 960, 960, 960, 960, 960, 960, 960, 960, 960, 960, 960, 960, 960, 960, 960, 960, 960, 960, 959, 959, 959, 959, 959, 959, 959, 959, 959, 957, 957, 956, 954, 954, 954, 954, 954, 954, 954, 954, 953, 953, 953, 953, 953, 953, 953, 953, 953, 952, 952, 952, 951, 951, 951, 951, 951, 951, 951, 951, 951, 951, 949, 947, 943, 942, 942, 941, 937, 937, 937, 937, 937, 937, 937, 937, 936, 935, 933, 932, 932, 931, 930, 930, 928, 928, 928, 928, 928, 928, 928, 928, 924, 921, 917, 913, 905, 903, 900, 900, 900, 900, 900, 901, 910, 914, 919, 924, 936, 943, 950, 957, 969, 976, 984, 996, 1013, 1024, 1034, 1044, 1062, 1071, 1078, 1086, 1107, 1118, 1131, 1145, 1171, 1184, 1198, 1213, 1235, 1245, 1255, 1264, 1283, 1292, 1302, 1311, 1326, 1331, 1338, 1343, 1350, 1356, 1362, 1371, 1387, 1397, 1404, 1412, 1426, 1434, 1445, 1462, 1512, 1537, 1557, 1585, 1619, 1634, 1647, 1657, 1674, 1683, 1692, 1698, 1706, 1707, 1709, 1711, 1714, 1717, 1720, 1722, 1726, 1728, 1729, 1729, 1730, 1730, 1730, 1730, 1730, 1730, 1730, 1730, 1730, 1730, 1730, 1730, 1730, 1730, 1730, 1730, 1730, 1730, 1730, 1730, 1730, 1730, 1730, 1730, 1730, 1730, 1730, 1730, 1730, 1730, 1730, 1730, 1730, 1730, 1730, 1730, 1730, 1730, 1730, 1730, 1730, 1730, 1730, 1730, 1730, 1730, 1730]","[1010, 1010, 1010, 1010, 1010, 1010, 1010, 1010, 1010, 1010, 1010, 1010, 1010, 1010, 1010, 1010, 1010, 1010, 1010, 1010, 1010, 1010, 1010, 1010, 1010, 1010, 1010, 1010, 1010, 1010, 1010, 1010, 1010, 1010, 1010, 1010, 1010, 1010, 1008, 1006, 1004, 1002, 993, 990, 987, 984, 976, 972, 966, 960, 943, 933, 925, 919, 910, 905, 899, 892, 881, 871, 861, 850, 833, 827, 824, 820, 813, 809, 805, 798, 784, 774, 764, 755, 747, 744, 740, 736, 728, 721, 714, 706, 691, 682, 674, 663, 645, 634, 624, 616, 597, 592, 582, 577, 563, 555, 548, 538, 522, 513, 506, 501, 489, 486, 484, 483, 481, 480, 480, 480, 480, 480, 480, 480, 476, 472, 467, 462, 449, 445, 442, 441, 438, 433, 427, 417, 395, 382, 375, 365, 348, 338, 330, 323, 311, 305, 298, 290, 276, 265, 260, 251, 238, 233, 228, 223, 214, 210, 204, 201, 194, 188, 182, 177, 170, 168, 165, 164, 160, 159, 157, 154, 152, 150, 150, 149, 149, 149, 149, 149, 149, 149, 149, 149, 149, 149, 149, 149, 149, 149, 149, 149, 149, 147, 143, 142, 139, 138, 136, 133, 129, 129, 128, 127, 125, 123, 121, 119, 114, 112, 112, 112, 112, 112, 112, 112, 112, 112, 112, 112, 112, 112, 112, 112, 112, 112, 112, 112, 112, 112, 112, 112, 112, 112, 112, 112, 112, 112, 112, 112, 112, 112, 112, 112, 112, 112, 112, 112, 112, 112, 112, 112, 112, 112, 112, 112, 112, 112, 112]"
"Promise","Wie oft werden Sie die Hälfte zurückgeben?","Promise","1","undefined","5","0","2","60","1080","161","10","1","1024","0","legacy","[11, 21, 31, 41, 51, 61, 71, 81, 91, 101, 111, 121, 131, 141, 151, 161, 171, 181, 191, 201, 211, 221, 231, 241, 251, 261, 271, 281, 291, 301, 311, 321, 331, 341, 351, 361, 371, 381, 391, 401, 411, 421, 431, 441, 451, 461, 471, 481, 491, 501, 511, 521, 531, 541, 551, 561, 571, 581, 591, 601, 611, 621, 631, 641, 651, 661, 671, 681, 691, 701, 711, 721, 731, 741, 751, 761, 771, 781, 791, 801, 811, 821, 831, 841, 851, 861, 871, 881, 891, 901, 911, 921, 931, 941, 951, 961, 971, 981, 991, 1001, 1011, 1021]","1061","1920","[960, 960, 960, 960, 960, 960, 960, 960, 960, 960, 960, 960, 960, 959, 958, 950, 948, 940, 938, 939, 941, 946, 950, 951, 951, 951, 946, 936, 935, 934, 932, 928, 924, 918, 908, 877, 852, 832, 812, 766, 744, 722, 706, 675, 652, 628, 580, 499, 441, 401, 360, 316, 304, 294, 288, 273, 263, 250, 231, 197, 183, 170, 159, 148, 144, 142, 141, 134, 129, 125, 119, 110, 106, 106, 105, 105, 105, 105, 105, 102, 100, 100, 99, 99, 99, 99, 99, 99, 99, 99, 99, 99, 99, 101, 101, 103, 103, 103, 103, 103, 103, 103]","[1010, 1010, 1010, 1010, 1010, 1010, 1010, 1010, 1010, 1010, 1010, 1010, 1010, 1008, 987, 894, 843, 789, 747, 688, 667, 645, 603, 511, 450, 392, 338, 263, 254, 245, 236, 214, 203, 193, 179, 145, 127, 113, 99, 74, 60, 47, 38, 25, 16, 3, 0, 0, 0, 0, 0, 0, 0, 0, 0, 0, 0, 0, 0, 0, 0, 0, 0, 0, 0, 0, 0, 0, 0, 0, 1, 4, 4, 4, 5, 5, 5, 5, 5, 6, 9, 12, 15, 16, 18, 18, 19, 19, 19, 21, 21, 24, 26, 27, 28, 28, 28, 28, 28, 28, 28, 28]"
"Trust","Teilnehmer A hat Ihnen 2 Punkte übermittelt.","Payback","1","undefined","6","0","2","60","1080","711","5","1","2190","0","legacy","[11, 21, 31, 41, 51, 61, 71, 81, 91, 101, 111, 121, 131, 141, 151, 161, 171, 181, 191, 201, 211, 221, 231, 241, 251, 261, 271, 281, 291, 301, 311, 321, 331, 341, 351, 361, 371, 381, 391, 401, 411, 421, 431, 441, 451, 461, 471, 481, 491, 501, 511, 521, 531, 541, 551, 561, 571, 581, 591, 601, 611, 621, 631, 641, 651, 661, 671, 681, 691, 701, 711, 721, 731, 741, 751, 761, 771, 781, 791, 801, 811, 821, 831, 841, 851, 861, 871, 881, 891, 901, 911, 921, 931, 941, 951, 961, 971, 981, 991, 1001, 1011, 1021, 1031, 1041, 1051, 1061, 1071, 1081, 1091, 1101, 1111, 1121, 1131, 1141, 1151, 1161, 1171, 1181, 1191, 1201, 1211, 1221, 1231, 1241, 1251, 1261, 1271, 1281, 1291, 1301, 1311, 1321, 1331, 1341, 1351, 1361, 1371, 1381, 1391, 1401, 1411, 1421, 1431, 1441, 1451, 1461, 1471, 1481, 1491, 1501, 1511, 1521, 1531, 1541, 1551, 1561, 1571, 1581, 1591, 1601, 1611, 1621, 1631, 1641, 1651, 1661, 1671, 1681, 1691, 1701, 1711, 1721, 1731, 1741, 1751, 1761, 1771, 1781, 1791, 1801, 1811, 1821, 1831, 1841, 1851, 1861, 1871, 1881, 1891, 1901, 1911, 1921, 1931, 1941, 1951, 1961, 1971, 1981, 1991, 2001, 2011, 2021, 2031, 2041, 2051, 2061, 2071, 2081, 2091, 2101, 2111, 2121, 2131, 2141, 2151, 2161, 2171, 2181]","1061","1920","[960, 960, 960, 960, 960, 960, 960, 960, 960, 960, 960, 960, 960, 960, 960, 960, 960, 960, 960, 960, 960, 960, 960, 960, 960, 960, 960, 960, 960, 960, 960, 960, 960, 960, 960, 960, 960, 960, 960, 960, 960, 960, 960, 960, 960, 960, 960, 960, 960, 960, 960, 960, 960, 960, 960, 960, 960, 960, 960, 960, 960, 960, 960, 960, 960, 960, 958, 958, 957, 956, 954, 954, 953, 953, 953, 953, 953, 953, 952, 951, 951, 951, 949, 949, 949, 948, 947, 947, 946, 946, 945, 944, 943, 943, 939, 937, 936, 935, 933, 933, 933, 933, 933, 933, 931, 931, 928, 927, 926, 926, 926, 926, 926, 926, 926, 926, 926, 925, 922, 922, 920, 917, 914, 912, 911, 910, 905, 904, 901, 899, 890, 882, 877, 871, 859, 853, 845, 838, 822, 812, 802, 791, 763, 751, 736, 722, 691, 679, 666, 654, 632, 618, 601, 586, 543, 522, 498, 477, 444, 430, 418, 406, 390, 380, 370, 362, 344, 333, 322, 314, 301, 297, 292, 289, 281, 275, 264, 253, 220, 207, 193, 181, 172, 170, 170, 170, 170, 170, 170, 170, 170, 170, 170, 170, 170, 170, 170, 170, 170, 170, 170, 170, 170, 170, 170, 170, 170, 170, 170, 170, 170, 170, 170, 170, 170, 170, 170, 170]","[1010, 1010, 1010, 1010, 1010, 1010, 1010, 1010, 1010, 1010, 1010, 1010, 1010, 1010, 1010, 1010, 1010, 1010, 1010, 1010, 1010, 1010, 1010, 1010, 1010, 1010, 1010, 1010, 1010, 1010, 1010, 1010, 1010, 1010, 1010, 1010, 1010, 1010, 1010, 1010, 1010, 1010, 1007, 1006, 1006, 1004, 1000, 997, 995, 993, 989, 988, 987, 985, 984, 982, 982, 980, 976, 973, 971, 968, 962, 961, 958, 957, 953, 950, 947, 945, 936, 929, 925, 920, 916, 913, 911, 908, 904, 902, 901, 896, 886, 883, 880, 877, 872, 869, 867, 865, 860, 857, 853, 847, 828, 817, 808, 800, 790, 784, 780, 773, 762, 756, 748, 741, 722, 715, 705, 699, 688, 686, 684, 683, 679, 676, 674, 670, 657, 647, 635, 621, 595, 584, 576, 570, 553, 543, 535, 523, 501, 486, 473, 459, 433, 419, 403, 390, 368, 354, 342, 329, 288, 268, 246, 224, 188, 176, 162, 151, 135, 128, 116, 109, 94, 85, 74, 63, 50, 45, 43, 40, 39, 38, 37, 34, 33, 32, 32, 31, 28, 28, 28, 28, 28, 28, 31, 35, 44, 48, 52, 55, 58, 59, 59, 59, 59, 59, 59, 59, 59, 59, 59, 59, 59, 59, 59, 59, 59, 59, 59, 59, 59, 59, 59, 59, 59, 59, 59, 59, 59, 59, 59, 59, 59, 59, 59, 59]"
"Trust","Teilnehmer A hat Ihnen 2 Punkte übermittelt.","Payback","1","undefined","7","0","2","60","1080","381","5","1","1348","0","legacy","[11, 21, 31, 41, 51, 61, 71, 81, 91, 101, 111, 121, 131, 141, 151, 161, 171, 181, 191, 201, 211, 221, 231, 241, 251, 261, 271, 281, 291, 301, 311, 321, 331, 341, 351, 361, 371, 381, 391, 401, 411, 421, 431, 441, 451, 461, 471, 481, 491, 501, 511, 521, 531, 541, 551, 561, 571, 581, 591, 601, 611, 621, 631, 641, 651, 661, 671, 681, 691, 701, 711, 721, 731, 741, 751, 761, 771, 781, 791, 801, 811, 821, 831, 841, 851, 861, 871, 881, 891, 901, 911, 921, 931, 941, 951, 961, 971, 981, 991, 1001, 1011, 1021, 1031, 1041, 1051, 1061, 1071, 1081, 1091, 1101, 1111, 1121, 1131, 1141, 1151, 1161, 1171, 1181, 1191, 1201, 1211, 1221, 1231, 1241, 1251, 1261, 1271, 1281, 1291, 1301, 1311, 1321, 1331, 1341]","1061","1920","[960, 960, 960, 960, 960, 960, 960, 960, 960, 960, 960, 960, 960, 960, 960, 960, 960, 960, 960, 960, 960, 960, 960, 960, 960, 960, 960, 960, 960, 960, 959, 956, 955, 949, 945, 938, 929, 902, 886, 863, 840, 789, 766, 742, 721, 678, 658, 641, 627, 607, 598, 594, 591, 587, 585, 584, 583, 581, 579, 578, 575, 570, 566, 562, 557, 543, 537, 528, 519, 497, 485, 470, 456, 425, 407, 392, 379, 361, 353, 348, 343, 337, 335, 330, 326, 316, 310, 306, 302, 294, 292, 290, 288, 286, 286, 284, 281, 274, 272, 268, 263, 248, 238, 226, 219, 209, 209, 208, 208, 207, 207, 205, 203, 195, 191, 185, 181, 172, 168, 164, 160, 150, 148, 146, 145, 141, 138, 137, 134, 133, 133, 133, 133, 133]","[1010, 1010, 1010, 1010, 1010, 1010, 1010, 1010, 1010, 1010, 1010, 1010, 1010, 1010, 1010, 1010, 1010, 1010, 1010, 1010, 1010, 1010, 1010, 1010, 1010, 1010, 1010, 1010, 1010, 1010, 1010, 1010, 1005, 992, 983, 973, 961, 933, 919, 901, 882, 841, 823, 801, 784, 750, 736, 723, 715, 700, 693, 690, 688, 685, 683, 683, 681, 680, 679, 678, 675, 669, 664, 656, 648, 626, 617, 607, 595, 566, 551, 534, 514, 471, 448, 430, 417, 400, 391, 386, 379, 368, 362, 353, 345, 325, 316, 307, 300, 289, 286, 283, 281, 279, 278, 276, 274, 267, 266, 262, 258, 245, 239, 232, 225, 221, 221, 220, 220, 219, 217, 212, 205, 188, 179, 169, 159, 145, 138, 129, 122, 107, 103, 101, 99, 95, 92, 91, 88, 86, 86, 86, 86, 86]"
"NoTrust","Teilnehmer A hat Ihnen keine 2 Punkte übermittelt.","Payback","1","undefined","8","0","2","60","1080","381","0","1","1348","0","legacy","[11, 21, 31, 41, 51, 61, 71, 81, 91, 101, 111, 121, 131, 141, 151, 161, 171, 181, 191, 201, 211, 221, 231, 241, 251, 261, 271, 281, 291, 301, 311, 321, 331, 341, 351, 361, 371, 381, 391, 401, 411, 421, 431, 441, 451, 461, 471, 481, 491, 501, 511, 521, 531, 541, 551, 561, 571, 581, 591, 601, 611, 621, 631, 641, 651, 661, 671, 681, 691, 701, 711, 721, 731, 741, 751, 761, 771, 781, 791, 801, 811, 821, 831, 841, 851, 861, 871, 881, 891, 901, 911, 921, 931, 941, 951, 961, 971, 981, 991, 1001, 1011, 1021, 1031, 1041, 1051, 1061, 1071, 1081, 1091, 1101, 1111, 1121, 1131, 1141, 1151, 1161, 1171, 1181, 1191, 1201, 1211, 1221, 1231, 1241, 1251, 1261, 1271, 1281, 1291, 1301, 1311, 1321, 1331, 1341]","1061","1920","[960, 960, 960, 960, 960, 960, 960, 960, 960, 960, 960, 960, 960, 960, 960, 960, 960, 960, 960, 960, 960, 960, 960, 960, 960, 960, 960, 960, 960, 960, 959, 956, 955, 949, 945, 938, 929, 902, 886, 863, 840, 789, 766, 742, 721, 678, 658, 641, 627, 607, 598, 594, 591, 587, 585, 584, 583, 581, 579, 578, 575, 570, 566, 562, 557, 543, 537, 528, 519, 497, 485, 470, 456, 425, 407, 392, 379, 361, 353, 348, 343, 337, 335, 330, 326, 316, 310, 306, 302, 294, 292, 290, 288, 286, 286, 284, 281, 274, 272, 268, 263, 248, 238, 226, 219, 209, 209, 208, 208, 207, 207, 205, 203, 195, 191, 185, 181, 172, 168, 164, 160, 150, 148, 146, 145, 141, 138, 137, 134, 133, 133, 133, 133, 133]","[1010, 1010, 1010, 1010, 1010, 1010, 1010, 1010, 1010, 1010, 1010, 1010, 1010, 1010, 1010, 1010, 1010, 1010, 1010, 1010, 1010, 1010, 1010, 1010, 1010, 1010, 1010, 1010, 1010, 1010, 1010, 1010, 1005, 992, 983, 973, 961, 933, 919, 901, 882, 841, 823, 801, 784, 750, 736, 723, 715, 700, 693, 690, 688, 685, 683, 683, 681, 680, 679, 678, 675, 669, 664, 656, 648, 626, 617, 607, 595, 566, 551, 534, 514, 471, 448, 430, 417, 400, 391, 386, 379, 368, 362, 353, 345, 325, 316, 307, 300, 289, 286, 283, 281, 279, 278, 276, 274, 267, 266, 262, 258, 245, 239, 232, 225, 221, 221, 220, 220, 219, 217, 212, 205, 188, 179, 169, 159, 145, 138, 129, 122, 107, 103, 101, 99, 95, 92, 91, 88, 86, 86, 86, 86, 86]"
"Promise","Wie oft werden Sie die Hälfte zurückgeben?","Promise","1","undefined","8","0","3","60","1080","121","0","1","984","0","legacy","[11, 21, 31, 41, 51, 61, 71, 81, 91, 101, 111, 121, 131, 141, 151, 161, 171, 181, 191, 201, 211, 221, 231, 241, 251, 261, 271, 281, 291, 301, 311, 321, 331, 341, 351, 361, 371, 381, 391, 401, 411, 421, 431, 441, 451, 461, 471, 481, 491, 501, 511, 521, 531, 541, 551, 561, 571, 581, 591, 601, 611, 621, 631, 641, 651, 661, 671, 681, 691, 701, 711, 721, 731, 741, 751, 761, 771, 781, 791, 801, 811, 821, 831, 841, 851, 861, 871, 881, 891, 901, 911, 921, 931, 941, 951, 961, 971, 981]","1061","1920","[960, 960, 960, 960, 960, 960, 960, 954, 946, 937, 920, 868, 833, 798, 761, 675, 626, 589, 554, 481, 447, 411, 377, 306, 291, 278, 266, 247, 236, 227, 214, 186, 171, 157, 145, 130, 124, 117, 109, 96, 89, 85, 79, 74, 73, 72, 72, 72, 72, 71, 71, 71, 71, 71, 71, 71, 71, 70, 70, 69, 69, 67, 66, 65, 65, 65, 65, 66, 66, 66, 66, 66, 66, 66, 66, 66, 66, 66, 66, 66, 66, 66, 66, 66, 66, 66, 66, 66, 66, 66, 66, 66, 66, 66, 66, 66, 66, 66]","[1010, 1010, 1010, 1010, 1010, 1010, 1010, 1008, 999, 987, 952, 810, 716, 616, 510, 323, 251, 193, 158, 72, 30, 0, 0, 0, 0, 0, 0, 0, 0, 0, 0, 0, 0, 0, 0, 0, 0, 0, 0, 0, 0, 0, 0, 0, 0, 0, 0, 0, 0, 0, 0, 0, 0, 0, 0, 0, 0, 0, 1, 7, 12, 18, 21, 24, 26, 26, 27, 28, 28, 28, 28, 28, 28, 28, 28, 28, 28, 28, 28, 28, 28, 28, 28, 28, 28, 28, 28, 28, 28, 28, 28, 28, 28, 28, 28, 28, 28, 28]"
"Trust","Teilnehmer A hat Ihnen 2 Punkte übermittelt.","Payback","1","undefined","9","0","3","60","1080","281","5","1","1206","0","legacy","[11, 21, 31, 41, 51, 61, 71, 81, 91, 101, 111, 121, 131, 141, 151, 161, 171, 181, 191, 201, 211, 221, 231, 241, 251, 261, 271, 281, 291, 301, 311, 321, 331, 341, 351, 361, 371, 381, 391, 401, 411, 421, 431, 441, 451, 461, 471, 481, 491, 501, 511, 521, 531, 541, 551, 561, 571, 581, 591, 601, 611, 621, 631, 641, 651, 661, 671, 681, 691, 701, 711, 721, 731, 741, 751, 761, 771, 781, 791, 801, 811, 821, 831, 841, 851, 861, 871, 881, 891, 901, 911, 921, 931, 941, 951, 961, 971, 981, 991, 1001, 1011, 1021, 1031, 1041, 1051, 1061, 1071, 1081, 1091, 1101, 1111, 1121, 1131, 1141, 1151, 1161, 1171, 1181, 1191, 1201]","1061","1920","[960, 960, 960, 960, 960, 960, 960, 960, 960, 960, 960, 960, 960, 960, 960, 960, 960, 960, 960, 960, 960, 960, 960, 960, 958, 952, 930, 921, 911, 898, 877, 865, 851, 838, 804, 782, 759, 734, 671, 636, 609, 579, 536, 514, 494, 481, 451, 434, 411, 388, 330, 307, 279, 255, 204, 186, 173, 154, 128, 112, 92, 71, 20, 3, 0, 0, 0, 0, 0, 0, 0, 0, 0, 0, 0, 0, 0, 0, 0, 0, 0, 0, 0, 0, 0, 0, 2, 3, 5, 9, 15, 19, 20, 20, 21, 21, 21, 21, 21, 21, 21, 21, 21, 21, 21, 21, 21, 21, 21, 21, 21, 21, 21, 21, 21, 21, 21, 21, 21, 21]","[1010, 1010, 1010, 1010, 1010, 1010, 1010, 1010, 1010, 1010, 1010, 1010, 1010, 1010, 1010, 1010, 1010, 1010, 1010, 1010, 1010, 1010, 1010, 1010, 1009, 996, 951, 926, 902, 876, 829, 807, 785, 768, 722, 701, 672, 645, 578, 541, 516, 484, 434, 411, 387, 370, 338, 320, 302, 284, 231, 202, 158, 117, 47, 22, 0, 0, 0, 0, 0, 0, 0, 0, 0, 0, 0, 0, 0, 0, 0, 0, 0, 0, 0, 0, 0, 0, 0, 0, 3, 7, 15, 21, 24, 27, 32, 34, 38, 44, 53, 58, 60, 61, 64, 64, 64, 64, 64, 64, 64, 64, 64, 64, 64, 64, 64, 64, 64, 64, 64, 64, 64, 64, 64, 64, 64, 64, 64, 64]"
"Trust","Teilnehmer A hat Ihnen 2 Punkte übermittelt.","Payback","1","undefined","10","0","3","60","1080","201","5","1","1189","0","legacy","[11, 21, 31, 41, 51, 61, 71, 81, 91, 101, 111, 121, 131, 141, 151, 161, 171, 181, 191, 201, 211, 221, 231, 241, 251, 261, 271, 281, 291, 301, 311, 321, 331, 341, 351, 361, 371, 381, 391, 401, 411, 421, 431, 441, 451, 461, 471, 481, 491, 501, 511, 521, 531, 541, 551, 561, 571, 581, 591, 601, 611, 621, 631, 641, 651, 661, 671, 681, 691, 701, 711, 721, 731, 741, 751, 761, 771, 781, 791, 801, 811, 821, 831, 841, 851, 861, 871, 881, 891, 901, 911, 921, 931, 941, 951, 961, 971, 981, 991, 1001, 1011, 1021, 1031, 1041, 1051, 1061, 1071, 1081, 1091, 1101, 1111, 1121, 1131, 1141, 1151, 1161, 1171, 1181]","1061","1920","[960, 960, 960, 960, 960, 960, 960, 960, 960, 960, 960, 960, 960, 960, 960, 960, 956, 949, 925, 907, 884, 868, 813, 783, 757, 735, 690, 672, 652, 628, 581, 555, 535, 517, 492, 486, 480, 474, 460, 454, 447, 438, 423, 413, 404, 396, 384, 380, 378, 375, 373, 371, 369, 366, 362, 357, 351, 344, 328, 319, 311, 302, 287, 281, 277, 273, 264, 259, 254, 248, 234, 229, 222, 215, 206, 202, 199, 195, 187, 182, 176, 172, 162, 159, 155, 154, 152, 150, 147, 146, 145, 145, 145, 145, 145, 145, 145, 145, 145, 145, 145, 145, 145, 145, 145, 145, 145, 145, 145, 145, 145, 145, 145, 145, 145, 145, 145, 145]","[1010, 1010, 1010, 1010, 1010, 1010, 1010, 1010, 1010, 1010, 1010, 1010, 1010, 1010, 1010, 1011, 1008, 998, 957, 924, 881, 838, 755, 716, 680, 651, 599, 578, 555, 531, 489, 468, 451, 436, 407, 401, 395, 388, 374, 367, 359, 350, 337, 330, 321, 315, 303, 298, 296, 292, 288, 285, 283, 282, 279, 277, 274, 270, 260, 253, 248, 241, 229, 222, 218, 215, 207, 203, 199, 193, 175, 167, 158, 149, 136, 130, 128, 123, 116, 113, 109, 108, 104, 102, 99, 98, 94, 92, 90, 89, 88, 88, 88, 88, 88, 88, 88, 88, 88, 88, 88, 88, 88, 88, 88, 88, 88, 88, 88, 88, 88, 88, 88, 88, 88, 88, 88, 88]"
"Trust","Teilnehmer A hat Ihnen 2 Punkte übermittelt.","Payback","0","undefined","11","0","3","60","1080","331","10","2","2725","0","legacy","[11, 21, 31, 41, 51, 61, 71, 81, 91, 101, 111, 121, 131, 141, 151, 161, 171, 181, 191, 201, 211, 221, 231, 241, 251, 261, 271, 281, 291, 301, 311, 321, 331, 341, 351, 361, 371, 381, 391, 401, 411, 421, 431, 441, 451, 461, 471, 481, 491, 501, 511, 521, 531, 541, 551, 561, 571, 581, 591, 601, 611, 621, 631, 641, 651, 661, 671, 681, 691, 701, 711, 721, 731, 741, 751, 761, 771, 781, 791, 801, 811, 821, 831, 841, 851, 861, 871, 881, 891, 901, 911, 921, 931, 941, 951, 961, 971, 981, 991, 1001, 1011, 1021, 1031, 1041, 1051, 1061, 1071, 1081, 1091, 1101, 1111, 1121, 1131, 1141, 1151, 1161, 1171, 1181, 1191, 1201, 1211, 1221, 1231, 1241, 1251, 1261, 1271, 1281, 1291, 1301, 1311, 1321, 1331, 1341, 1351, 1361, 1371, 1381, 1391, 1401, 1411, 1421, 1431, 1441, 1451, 1461, 1471, 1481, 1491, 1501, 1511, 1521, 1531, 1541, 1551, 1561, 1571, 1581, 1591, 1601, 1611, 1621, 1631, 1641, 1651, 1661, 1671, 1681, 1691, 1701, 1711, 1721, 1731, 1741, 1751, 1761, 1771, 1781, 1791, 1801, 1811, 1821, 1831, 1841, 1851, 1861, 1871, 1881, 1891, 1901, 1911, 1921, 1931, 1941, 1951, 1961, 1971, 1981, 1991, 2001, 2011, 2021, 2031, 2041, 2051, 2061, 2071, 2081, 2091, 2101, 2111, 2121, 2131, 2141, 2151, 2161, 2171, 2181, 2191, 2201, 2211, 2221, 2231, 2241, 2251, 2261, 2271, 2281, 2291, 2301, 2311, 2321, 2331, 2341, 2351, 2361, 2371, 2381, 2391, 2401, 2411, 2421, 2431, 2441, 2451, 2461, 2471, 2481, 2491, 2501, 2511, 2521, 2531, 2541, 2551, 2561, 2571, 2581, 2591, 2601, 2611, 2621, 2631, 2641, 2651, 2661, 2671, 2681, 2691, 2701, 2711, 2721]","1061","1920","[960, 960, 960, 960, 960, 960, 960, 960, 960, 960, 960, 960, 960, 960, 960, 960, 960, 960, 960, 960, 960, 960, 960, 960, 960, 960, 960, 961, 966, 979, 986, 991, 997, 1010, 1020, 1025, 1033, 1050, 1063, 1070, 1080, 1093, 1097, 1100, 1102, 1107, 1114, 1118, 1124, 1136, 1142, 1146, 1150, 1155, 1156, 1159, 1160, 1164, 1166, 1170, 1175, 1181, 1185, 1187, 1188, 1191, 1192, 1193, 1195, 1201, 1204, 1207, 1211, 1216, 1218, 1222, 1224, 1227, 1230, 1230, 1233, 1237, 1240, 1245, 1247, 1253, 1254, 1258, 1261, 1265, 1267, 1270, 1272, 1279, 1282, 1285, 1286, 1292, 1294, 1295, 1295, 1298, 1298, 1299, 1301, 1304, 1306, 1310, 1313, 1319, 1323, 1325, 1328, 1331, 1334, 1335, 1337, 1342, 1344, 1349, 1354, 1362, 1366, 1369, 1371, 1374, 1375, 1377, 1377, 1382, 1383, 1386, 1389, 1394, 1395, 1395, 1395, 1397, 1398, 1400, 1401, 1406, 1408, 1409, 1411, 1413, 1413, 1414, 1414, 1416, 1417, 1420, 1422, 1428, 1433, 1437, 1443, 1458, 1463, 1471, 1476, 1492, 1499, 1509, 1521, 1548, 1562, 1575, 1587, 1608, 1618, 1626, 1633, 1644, 1647, 1655, 1662, 1679, 1686, 1694, 1700, 1711, 1716, 1719, 1723, 1725, 1733, 1735, 1737, 1739, 1740, 1740, 1741, 1741, 1741, 1741, 1741, 1741, 1741, 1741, 1741, 1741, 1741, 1741, 1741, 1741, 1741, 1741, 1741, 1741, 1741, 1741, 1741, 1741, 1741, 1741, 1741, 1741, 1741, 1741, 1741, 1741, 1741, 1741, 1741, 1741, 1741, 1741, 1741, 1741, 1741, 1741, 1741, 1741, 1741, 1741, 1741, 1741, 1741, 1741, 1741, 1741, 1741, 1741, 1741, 1741, 1741, 1741, 1741, 1741, 1741, 1741, 1741, 1741, 1741, 1741, 1741, 1741, 1741, 1741, 1741, 1741, 1741, 1741, 1741, 1741, 1741, 1741, 1741, 1741, 1741, 1741]","[1010, 1010, 1010, 1010, 1010, 1010, 1010, 1010, 1010, 1010, 1010, 1010, 1010, 1010, 1010, 1010, 1010, 1010, 1010, 1010, 1010, 1010, 1010, 1010, 1010, 1010, 1010, 999, 991, 966, 951, 940, 925, 897, 874, 851, 829, 783, 759, 741, 720, 697, 690, 684, 676, 659, 642, 630, 618, 598, 591, 584, 580, 572, 569, 564, 559, 544, 538, 532, 527, 521, 517, 516, 514, 507, 503, 498, 494, 482, 477, 472, 466, 456, 451, 443, 437, 430, 428, 427, 423, 418, 413, 407, 402, 392, 389, 385, 381, 376, 373, 371, 369, 365, 362, 360, 358, 354, 352, 352, 351, 349, 349, 348, 347, 344, 342, 337, 333, 327, 324, 322, 319, 317, 316, 314, 314, 308, 304, 299, 293, 284, 281, 278, 276, 273, 272, 270, 270, 264, 263, 259, 254, 250, 249, 248, 248, 246, 245, 243, 241, 236, 234, 232, 231, 229, 229, 228, 227, 226, 225, 223, 221, 216, 211, 208, 205, 198, 196, 193, 192, 187, 186, 183, 178, 171, 166, 163, 159, 152, 147, 144, 141, 136, 133, 129, 123, 112, 106, 101, 96, 89, 86, 84, 82, 80, 74, 72, 70, 68, 67, 67, 66, 66, 66, 66, 66, 66, 66, 66, 66, 66, 66, 66, 66, 66, 66, 66, 66, 66, 66, 66, 66, 66, 66, 66, 66, 66, 66, 66, 66, 66, 66, 66, 66, 66, 66, 66, 66, 66, 66, 66, 66, 66, 66, 66, 66, 66, 66, 66, 66, 66, 66, 66, 66, 66, 66, 66, 66, 66, 66, 66, 66, 66, 66, 66, 66, 66, 66, 66, 66, 66, 66, 66, 66, 66, 66, 66, 66, 66, 66, 66]"
"Promise","Wie oft werden Sie die Hälfte zurückgeben?","Promise","1","undefined","11","0","4","60","1080","131","10","1","888","0","legacy","[11, 21, 31, 41, 51, 61, 71, 81, 91, 101, 111, 121, 131, 141, 151, 161, 171, 181, 191, 201, 211, 221, 231, 241, 251, 261, 271, 281, 291, 301, 311, 321, 331, 341, 351, 361, 371, 381, 391, 401, 411, 421, 431, 441, 451, 461, 471, 481, 491, 501, 511, 521, 531, 541, 551, 561, 571, 581, 591, 601, 611, 621, 631, 641, 651, 661, 671, 681, 691, 701, 711, 721, 731, 741, 751, 761, 771, 781, 791, 801, 811, 821, 831, 841, 851, 861, 871, 881]","1061","1920","[960, 960, 960, 960, 960, 960, 960, 960, 960, 960, 959, 935, 910, 879, 833, 740, 693, 652, 612, 533, 498, 464, 434, 367, 337, 311, 302, 296, 296, 296, 296, 296, 295, 294, 290, 277, 271, 268, 264, 260, 258, 257, 257, 256, 253, 247, 234, 207, 190, 173, 159, 140, 139, 139, 139, 139, 139, 139, 139, 139, 139, 139, 138, 138, 138, 138, 138, 138, 138, 138, 138, 138, 138, 138, 138, 138, 138, 138, 138, 138, 138, 138, 138, 138, 138, 138, 138, 138]","[1010, 1010, 1010, 1010, 1010, 1010, 1010, 1010, 1010, 1010, 1008, 964, 907, 840, 755, 598, 542, 501, 465, 402, 367, 330, 295, 195, 153, 120, 109, 102, 102, 102, 102, 100, 97, 94, 89, 78, 75, 74, 71, 70, 70, 70, 70, 70, 70, 71, 75, 78, 79, 79, 79, 79, 79, 79, 79, 79, 79, 79, 79, 79, 79, 79, 79, 79, 79, 79, 79, 79, 79, 79, 79, 79, 79, 79, 79, 79, 79, 79, 79, 79, 79, 79, 79, 79, 79, 79, 79, 79]"
"Trust","Teilnehmer A hat Ihnen 2 Punkte übermittelt.","Payback","1","undefined","12","0","4","60","1080","351","5","1","1998","0","legacy","[11, 21, 31, 41, 51, 61, 71, 81, 91, 101, 111, 121, 131, 141, 151, 161, 171, 181, 191, 201, 211, 221, 231, 241, 251, 261, 271, 281, 291, 301, 311, 321, 331, 341, 351, 361, 371, 381, 391, 401, 411, 421, 431, 441, 451, 461, 471, 481, 491, 501, 511, 521, 531, 541, 551, 561, 571, 581, 591, 601, 611, 621, 631, 641, 651, 661, 671, 681, 691, 701, 711, 721, 731, 741, 751, 761, 771, 781, 791, 801, 811, 821, 831, 841, 851, 861, 871, 881, 891, 901, 911, 921, 931, 941, 951, 961, 971, 981, 991, 1001, 1011, 1021, 1031, 1041, 1051, 1061, 1071, 1081, 1091, 1101, 1111, 1121, 1131, 1141, 1151, 1161, 1171, 1181, 1191, 1201, 1211, 1221, 1231, 1241, 1251, 1261, 1271, 1281, 1291, 1301, 1311, 1321, 1331, 1341, 1351, 1361, 1371, 1381, 1391, 1401, 1411, 1421, 1431, 1441, 1451, 1461, 1471, 1481, 1491, 1501, 1511, 1521, 1531, 1541, 1551, 1561, 1571, 1581, 1591, 1601, 1611, 1621, 1631, 1641, 1651, 1661, 1671, 1681, 1691, 1701, 1711, 1721, 1731, 1741, 1751, 1761, 1771, 1781, 1791, 1801, 1811, 1821, 1831, 1841, 1851, 1861, 1871, 1881, 1891, 1901, 1911, 1921, 1931, 1941, 1951, 1961, 1971, 1981, 1991]","1061","1920","[960, 960, 960, 960, 960, 960, 960, 960, 960, 960, 960, 960, 960, 960, 960, 960, 960, 960, 960, 960, 960, 960, 960, 960, 960, 960, 960, 960, 960, 960, 955, 949, 941, 935, 912, 898, 881, 861, 823, 809, 795, 783, 766, 760, 755, 747, 733, 726, 719, 713, 707, 703, 700, 697, 693, 691, 684, 676, 647, 632, 617, 608, 595, 588, 583, 579, 570, 564, 557, 548, 535, 531, 527, 525, 521, 519, 519, 518, 516, 515, 512, 508, 500, 495, 491, 484, 470, 466, 463, 458, 451, 450, 448, 444, 439, 436, 433, 431, 424, 420, 418, 416, 411, 408, 406, 405, 404, 403, 403, 401, 400, 398, 398, 395, 391, 390, 388, 385, 380, 376, 372, 367, 364, 362, 360, 359, 351, 346, 339, 324, 320, 315, 312, 303, 301, 299, 298, 296, 293, 292, 289, 279, 275, 269, 267, 262, 260, 258, 257, 254, 251, 250, 248, 245, 245, 243, 243, 241, 241, 241, 241, 239, 239, 238, 238, 238, 238, 238, 238, 238, 238, 238, 238, 238, 238, 238, 238, 238, 238, 238, 238, 238, 238, 238, 238, 238, 238, 238, 238, 238, 238, 238, 238, 238, 238, 238, 238, 238, 238]","[1010, 1010, 1010, 1010, 1010, 1010, 1010, 1010, 1010, 1010, 1010, 1010, 1010, 1010, 1010, 1010, 1010, 1010, 1010, 1010, 1010, 1010, 1010, 1010, 1010, 1010, 1010, 1010, 1010, 1010, 1004, 994, 980, 970, 937, 917, 890, 862, 803, 784, 761, 745, 712, 701, 691, 680, 660, 650, 641, 632, 620, 613, 608, 603, 589, 578, 559, 531, 460, 435, 411, 394, 371, 362, 353, 346, 330, 321, 309, 298, 282, 277, 273, 270, 265, 264, 263, 263, 261, 260, 255, 250, 242, 234, 229, 221, 209, 205, 202, 199, 194, 194, 191, 189, 184, 181, 179, 177, 174, 172, 171, 170, 168, 167, 166, 165, 165, 164, 164, 163, 163, 162, 162, 160, 159, 158, 158, 156, 153, 151, 148, 147, 146, 144, 144, 142, 135, 130, 124, 115, 112, 107, 104, 98, 97, 96, 94, 91, 87, 87, 84, 77, 75, 71, 69, 67, 65, 64, 63, 60, 58, 57, 56, 55, 54, 53, 53, 52, 52, 52, 52, 52, 52, 51, 51, 51, 51, 51, 51, 51, 51, 51, 51, 51, 51, 51, 51, 51, 51, 51, 51, 51, 51, 51, 51, 51, 51, 51, 51, 51, 51, 51, 51, 51, 51, 51, 51, 51, 51]"
"Trust","Teilnehmer A hat Ihnen 2 Punkte übermittelt.","Payback","1","undefined","13","0","4","60","1080","341","5","1","1574","0","legacy","[11, 21, 31, 41, 51, 61, 71, 81, 91, 101, 111, 121, 131, 141, 151, 161, 171, 181, 191, 201, 211, 221, 231, 241, 251, 261, 271, 281, 291, 301, 311, 321, 331, 341, 351, 361, 371, 381, 391, 401, 411, 421, 431, 441, 451, 461, 471, 481, 491, 501, 511, 521, 531, 541, 551, 561, 571, 581, 591, 601, 611, 621, 631, 641, 651, 661, 671, 681, 691, 701, 711, 721, 731, 741, 751, 761, 771, 781, 791, 801, 811, 821, 831, 841, 851, 861, 871, 881, 891, 901, 911, 921, 931, 941, 951, 961, 971, 981, 991, 1001, 1011, 1021, 1031, 1041, 1051, 1061, 1071, 1081, 1091, 1101, 1111, 1121, 1131, 1141, 1151, 1161, 1171, 1181, 1191, 1201, 1211, 1221, 1231, 1241, 1251, 1261, 1271, 1281, 1291, 1301, 1311, 1321, 1331, 1341, 1351, 1361, 1371, 1381, 1391, 1401, 1411, 1421, 1431, 1441, 1451, 1461, 1471, 1481, 1491, 1501, 1511, 1521, 1531, 1541, 1551, 1561, 1571]","1061","1920","[960, 960, 960, 960, 960, 960, 960, 960, 960, 960, 960, 960, 960, 960, 960, 960, 960, 960, 960, 960, 960, 960, 960, 960, 960, 960, 958, 955, 952, 947, 935, 929, 924, 917, 902, 895, 889, 884, 871, 863, 857, 852, 840, 835, 828, 823, 808, 802, 796, 789, 779, 774, 770, 765, 757, 751, 745, 736, 710, 696, 685, 675, 661, 654, 649, 644, 632, 626, 620, 613, 600, 596, 593, 590, 585, 583, 581, 579, 571, 565, 561, 556, 543, 536, 529, 522, 511, 505, 498, 493, 479, 473, 465, 459, 446, 439, 433, 427, 420, 415, 412, 408, 403, 401, 399, 396, 390, 388, 383, 379, 370, 365, 362, 361, 356, 351, 349, 342, 328, 319, 313, 304, 292, 288, 284, 282, 277, 275, 273, 271, 263, 260, 255, 249, 240, 237, 235, 231, 228, 226, 226, 225, 224, 223, 221, 221, 216, 214, 214, 214, 214, 214, 214, 214, 214, 214, 214]","[1010, 1010, 1010, 1010, 1010, 1010, 1010, 1010, 1010, 1010, 1010, 1010, 1010, 1010, 1010, 1010, 1010, 1010, 1010, 1010, 1010, 1010, 1010, 1010, 1010, 1010, 1010, 1006, 1000, 992, 971, 960, 947, 937, 914, 903, 893, 883, 866, 859, 852, 847, 833, 827, 819, 811, 791, 783, 774, 766, 755, 749, 745, 741, 734, 728, 721, 710, 683, 668, 655, 645, 624, 616, 611, 604, 593, 588, 580, 575, 561, 556, 549, 543, 528, 521, 515, 508, 494, 487, 481, 473, 459, 451, 442, 435, 420, 411, 403, 396, 377, 367, 354, 342, 321, 310, 302, 293, 282, 276, 272, 266, 259, 255, 252, 249, 243, 241, 237, 233, 225, 218, 214, 212, 204, 199, 194, 188, 176, 167, 161, 151, 136, 132, 127, 124, 118, 115, 113, 110, 104, 103, 100, 98, 95, 95, 95, 94, 94, 94, 94, 94, 94, 94, 93, 92, 92, 92, 92, 92, 92, 92, 92, 92, 92, 92, 92]"
"Trust","Teilnehmer A hat Ihnen 2 Punkte übermittelt.","Payback","0","undefined","14","0","4","60","1080","291","10","2","1452","0","legacy","[11, 21, 31, 41, 51, 61, 71, 81, 91, 101, 111, 121, 131, 141, 151, 161, 171, 181, 191, 201, 211, 221, 231, 241, 251, 261, 271, 281, 291, 301, 311, 321, 331, 341, 351, 361, 371, 381, 391, 401, 411, 421, 431, 441, 451, 461, 471, 481, 491, 501, 511, 521, 531, 541, 551, 561, 571, 581, 591, 601, 611, 621, 631, 641, 651, 661, 671, 681, 691, 701, 711, 721, 731, 741, 751, 761, 771, 781, 791, 801, 811, 821, 831, 841, 851, 861, 871, 881, 891, 901, 911, 921, 931, 941, 951, 961, 971, 981, 991, 1001, 1011, 1021, 1031, 1041, 1051, 1061, 1071, 1081, 1091, 1101, 1111, 1121, 1131, 1141, 1151, 1161, 1171, 1181, 1191, 1201, 1211, 1221, 1231, 1241, 1251, 1261, 1271, 1281, 1291, 1301, 1311, 1321, 1331, 1341, 1351, 1361, 1371, 1381, 1391, 1401, 1411, 1421, 1431, 1441, 1451]","1061","1920","[960, 960, 960, 960, 960, 960, 960, 960, 960, 960, 960, 960, 960, 960, 960, 960, 960, 960, 960, 960, 960, 960, 961, 962, 963, 971, 978, 981, 993, 1006, 1014, 1022, 1033, 1054, 1067, 1076, 1091, 1116, 1131, 1144, 1156, 1179, 1187, 1194, 1200, 1210, 1220, 1226, 1233, 1249, 1255, 1264, 1270, 1280, 1285, 1286, 1289, 1295, 1303, 1311, 1318, 1337, 1347, 1359, 1366, 1378, 1383, 1388, 1395, 1408, 1414, 1420, 1425, 1435, 1437, 1442, 1447, 1453, 1457, 1460, 1462, 1467, 1470, 1471, 1475, 1480, 1485, 1486, 1487, 1497, 1503, 1509, 1513, 1523, 1527, 1535, 1540, 1553, 1560, 1563, 1573, 1586, 1595, 1602, 1608, 1616, 1618, 1621, 1625, 1632, 1635, 1638, 1641, 1644, 1647, 1650, 1652, 1655, 1658, 1660, 1662, 1669, 1672, 1676, 1678, 1688, 1691, 1696, 1700, 1709, 1712, 1714, 1716, 1717, 1717, 1717, 1717, 1717, 1717, 1717, 1717, 1717, 1717, 1717, 1717]","[1010, 1010, 1010, 1010, 1010, 1010, 1010, 1010, 1010, 1010, 1010, 1010, 1010, 1010, 1010, 1010, 1010, 1010, 1010, 1010, 1010, 1010, 1010, 1009, 1006, 986, 967, 946, 915, 863, 837, 812, 786, 736, 710, 689, 662, 621, 594, 569, 548, 512, 500, 491, 484, 472, 463, 456, 448, 430, 423, 417, 413, 405, 402, 401, 398, 391, 381, 369, 358, 338, 332, 324, 318, 308, 305, 300, 292, 276, 266, 254, 246, 231, 227, 221, 215, 201, 196, 190, 184, 172, 168, 165, 161, 156, 153, 152, 150, 144, 138, 134, 131, 124, 121, 116, 114, 105, 102, 100, 95, 89, 87, 83, 81, 77, 76, 75, 74, 73, 73, 72, 71, 70, 70, 68, 67, 67, 67, 67, 67, 64, 64, 63, 63, 61, 61, 60, 60, 60, 60, 60, 60, 59, 59, 59, 59, 59, 59, 59, 59, 59, 59, 59, 59]"
"Promise","Wie oft werden Sie die Hälfte zurückgeben?","Promise","1","undefined","14","0","5","60","1080","201","10","1","1223","0","legacy","[11, 21, 31, 41, 51, 61, 71, 81, 91, 101, 111, 121, 131, 141, 151, 161, 171, 181, 191, 201, 211, 221, 231, 241, 251, 261, 271, 281, 291, 301, 311, 321, 331, 341, 351, 361, 371, 381, 391, 401, 411, 421, 431, 441, 451, 461, 471, 481, 491, 501, 511, 521, 531, 541, 551, 561, 571, 581, 591, 601, 611, 621, 631, 641, 651, 661, 671, 681, 691, 701, 711, 721, 731, 741, 751, 761, 771, 781, 791, 801, 811, 821, 831, 841, 851, 861, 871, 881, 891, 901, 911, 921, 931, 941, 951, 961, 971, 981, 991, 1001, 1011, 1021, 1031, 1041, 1051, 1061, 1071, 1081, 1091, 1101, 1111, 1121, 1131, 1141, 1151, 1161, 1171, 1181, 1191, 1201, 1211, 1221]","1061","1920","[960, 960, 960, 960, 960, 960, 960, 960, 960, 960, 960, 960, 960, 959, 958, 955, 954, 951, 949, 933, 925, 906, 889, 829, 796, 771, 742, 707, 692, 678, 665, 624, 599, 577, 544, 506, 491, 481, 474, 461, 457, 448, 439, 421, 414, 406, 401, 392, 388, 384, 382, 374, 364, 354, 341, 317, 307, 298, 292, 281, 276, 271, 263, 248, 241, 233, 228, 223, 223, 222, 222, 222, 222, 222, 222, 222, 222, 222, 222, 222, 222, 222, 222, 222, 222, 222, 222, 222, 222, 222, 220, 217, 217, 215, 214, 212, 209, 209, 206, 206, 206, 205, 205, 205, 205, 205, 205, 205, 205, 205, 205, 205, 205, 205, 205, 205, 205, 205, 205, 205, 205, 205]","[1010, 1010, 1010, 1010, 1010, 1010, 1010, 1010, 1010, 1010, 1010, 1010, 1011, 1011, 1011, 1011, 1008, 999, 984, 924, 876, 812, 751, 626, 579, 540, 501, 446, 419, 399, 379, 341, 324, 310, 301, 287, 281, 276, 273, 266, 263, 259, 253, 248, 246, 243, 242, 241, 239, 239, 239, 238, 236, 232, 227, 217, 209, 202, 197, 188, 183, 179, 173, 163, 157, 152, 149, 144, 143, 143, 142, 142, 142, 142, 142, 142, 142, 142, 142, 142, 142, 142, 142, 142, 142, 142, 142, 142, 142, 142, 140, 138, 138, 135, 133, 129, 126, 125, 122, 120, 120, 119, 119, 119, 119, 119, 119, 119, 119, 119, 119, 119, 119, 119, 119, 119, 119, 119, 119, 119, 119, 119]"
"Trust","Teilnehmer A hat Ihnen 2 Punkte übermittelt.","Payback","1","undefined","15","0","5","60","1080","151","5","1","909","0","legacy","[11, 21, 31, 41, 51, 61, 71, 81, 91, 101, 111, 121, 131, 141, 151, 161, 171, 181, 191, 201, 211, 221, 231, 241, 251, 261, 271, 281, 291, 301, 311, 321, 331, 341, 351, 361, 371, 381, 391, 401, 411, 421, 431, 441, 451, 461, 471, 481, 491, 501, 511, 521, 531, 541, 551, 561, 571, 581, 591, 601, 611, 621, 631, 641, 651, 661, 671, 681, 691, 701, 711, 721, 731, 741, 751, 761, 771, 781, 791, 801, 811, 821, 831, 841, 851, 861, 871, 881, 891, 901]","1061","1920","[960, 960, 960, 960, 960, 960, 960, 960, 960, 960, 960, 960, 960, 960, 934, 912, 883, 847, 777, 750, 728, 712, 685, 673, 665, 655, 629, 614, 599, 585, 564, 555, 545, 535, 524, 519, 511, 503, 477, 467, 457, 448, 431, 424, 419, 415, 410, 405, 401, 397, 379, 367, 356, 343, 316, 306, 297, 288, 275, 271, 268, 265, 260, 258, 254, 250, 237, 230, 225, 223, 219, 219, 218, 216, 213, 212, 211, 208, 205, 205, 204, 204, 204, 204, 204, 204, 204, 204, 204, 204]","[1010, 1010, 1010, 1010, 1010, 1010, 1010, 1010, 1010, 1010, 1010, 1010, 1010, 998, 920, 864, 799, 720, 602, 553, 520, 497, 458, 441, 431, 419, 391, 378, 366, 356, 339, 333, 325, 317, 303, 297, 285, 274, 246, 236, 225, 217, 205, 200, 196, 193, 192, 191, 191, 191, 186, 181, 177, 170, 151, 142, 134, 127, 117, 114, 112, 110, 107, 106, 104, 102, 97, 92, 91, 90, 88, 88, 87, 87, 85, 84, 84, 83, 81, 81, 81, 81, 81, 81, 81, 81, 81, 81, 81, 81]"
"NoTrust","Teilnehmer A hat Ihnen keine 2 Punkte übermittelt.","Payback","1","undefined","16","0","5","60","1080","151","0","1","909","0","legacy","[11, 21, 31, 41, 51, 61, 71, 81, 91, 101, 111, 121, 131, 141, 151, 161, 171, 181, 191, 201, 211, 221, 231, 241, 251, 261, 271, 281, 291, 301, 311, 321, 331, 341, 351, 361, 371, 381, 391, 401, 411, 421, 431, 441, 451, 461, 471, 481, 491, 501, 511, 521, 531, 541, 551, 561, 571, 581, 591, 601, 611, 621, 631, 641, 651, 661, 671, 681, 691, 701, 711, 721, 731, 741, 751, 761, 771, 781, 791, 801, 811, 821, 831, 841, 851, 861, 871, 881, 891, 901]","1061","1920","[960, 960, 960, 960, 960, 960, 960, 960, 960, 960, 960, 960, 960, 960, 934, 912, 883, 847, 777, 750, 728, 712, 685, 673, 665, 655, 629, 614, 599, 585, 564, 555, 545, 535, 524, 519, 511, 503, 477, 467, 457, 448, 431, 424, 419, 415, 410, 405, 401, 397, 379, 367, 356, 343, 316, 306, 297, 288, 275, 271, 268, 265, 260, 258, 254, 250, 237, 230, 225, 223, 219, 219, 218, 216, 213, 212, 211, 208, 205, 205, 204, 204, 204, 204, 204, 204, 204, 204, 204, 204]","[1010, 1010, 1010, 1010, 1010, 1010, 1010, 1010, 1010, 1010, 1010, 1010, 1010, 998, 920, 864, 799, 720, 602, 553, 520, 497, 458, 441, 431, 419, 391, 378, 366, 356, 339, 333, 325, 317, 303, 297, 285, 274, 246, 236, 225, 217, 205, 200, 196, 193, 192, 191, 191, 191, 186, 181, 177, 170, 151, 142, 134, 127, 117, 114, 112, 110, 107, 106, 104, 102, 97, 92, 91, 90, 88, 88, 87, 87, 85, 84, 84, 83, 81, 81, 81, 81, 81, 81, 81, 81, 81, 81, 81, 81]"
"Trust","Teilnehmer A hat Ihnen 2 Punkte übermittelt.","Payback","0","undefined","17","0","5","60","1080","621","10","2","1777","0","legacy","[11, 21, 31, 41, 51, 61, 71, 81, 91, 101, 111, 121, 131, 141, 151, 161, 171, 181, 191, 201, 211, 221, 231, 241, 251, 261, 271, 281, 291, 301, 311, 321, 331, 341, 351, 361, 371, 381, 391, 401, 411, 421, 431, 441, 451, 461, 471, 481, 491, 501, 511, 521, 531, 541, 551, 561, 571, 581, 591, 601, 611, 621, 631, 641, 651, 661, 671, 681, 691, 701, 711, 721, 731, 741, 751, 761, 771, 781, 791, 801, 811, 821, 831, 841, 851, 861, 871, 881, 891, 901, 911, 921, 931, 941, 951, 961, 971, 981, 991, 1001, 1011, 1021, 1031, 1041, 1051, 1061, 1071, 1081, 1091, 1101, 1111, 1121, 1131, 1141, 1151, 1161, 1171, 1181, 1191, 1201, 1211, 1221, 1231, 1241, 1251, 1261, 1271, 1281, 1291, 1301, 1311, 1321, 1331, 1341, 1351, 1361, 1371, 1381, 1391, 1401, 1411, 1421, 1431, 1441, 1451, 1461, 1471, 1481, 1491, 1501, 1511, 1521, 1531, 1541, 1551, 1561, 1571, 1581, 1591, 1601, 1611, 1621, 1631, 1641, 1651, 1661, 1671, 1681, 1691, 1701, 1711, 1721, 1731, 1741, 1751, 1761, 1771]","1061","1920","[960, 960, 960, 960, 960, 960, 960, 960, 960, 960, 960, 960, 960, 960, 960, 960, 960, 960, 960, 960, 960, 960, 960, 960, 960, 960, 960, 960, 960, 960, 960, 960, 960, 960, 960, 960, 960, 960, 960, 960, 960, 960, 960, 960, 960, 960, 960, 963, 968, 968, 971, 974, 980, 982, 983, 987, 992, 993, 996, 998, 1003, 1006, 1008, 1011, 1017, 1018, 1022, 1024, 1028, 1030, 1032, 1035, 1041, 1043, 1046, 1048, 1058, 1063, 1068, 1072, 1079, 1083, 1088, 1091, 1100, 1104, 1110, 1115, 1125, 1130, 1136, 1141, 1150, 1156, 1160, 1163, 1174, 1179, 1185, 1192, 1206, 1212, 1219, 1224, 1235, 1239, 1245, 1252, 1273, 1281, 1293, 1302, 1320, 1329, 1339, 1347, 1367, 1377, 1389, 1408, 1454, 1479, 1507, 1533, 1576, 1595, 1611, 1622, 1646, 1656, 1666, 1676, 1695, 1703, 1711, 1720, 1736, 1742, 1744, 1746, 1746, 1746, 1746, 1746, 1749, 1751, 1755, 1758, 1763, 1764, 1764, 1764, 1764, 1764, 1764, 1764, 1764, 1764, 1764, 1764, 1764, 1764, 1764, 1764, 1764, 1764, 1764, 1764, 1764, 1764, 1764, 1764, 1764, 1764, 1764, 1764, 1764]","[1010, 1010, 1010, 1010, 1010, 1010, 1010, 1010, 1010, 1010, 1010, 1010, 1010, 1010, 1010, 1010, 1010, 1010, 1010, 1010, 1010, 1010, 1010, 1010, 1010, 1010, 1010, 1010, 1010, 1010, 1010, 1010, 1010, 1010, 1010, 1010, 1010, 1010, 1010, 1010, 1010, 1010, 1010, 1010, 1010, 1010, 1009, 1002, 994, 993, 990, 988, 984, 982, 980, 977, 969, 966, 960, 954, 942, 936, 931, 926, 914, 910, 902, 896, 887, 882, 878, 872, 861, 856, 848, 840, 824, 815, 807, 801, 787, 780, 771, 764, 745, 734, 721, 710, 687, 676, 666, 656, 638, 629, 619, 611, 587, 574, 563, 553, 531, 522, 515, 508, 493, 484, 473, 460, 427, 411, 396, 382, 360, 351, 339, 329, 304, 294, 280, 261, 227, 209, 191, 171, 146, 136, 126, 120, 105, 100, 94, 90, 80, 78, 75, 72, 67, 65, 64, 64, 64, 64, 64, 64, 63, 63, 61, 61, 60, 59, 59, 59, 59, 59, 59, 59, 59, 59, 59, 59, 59, 59, 59, 59, 59, 59, 59, 59, 59, 59, 59, 59, 59, 59, 59, 59, 59]"
"Promise","Wie oft werden Sie die Hälfte zurückgeben?","Promise","1","undefined","17","0","6","60","1080","131","10","1","848","0","legacy","[11, 21, 31, 41, 51, 61, 71, 81, 91, 101, 111, 121, 131, 141, 151, 161, 171, 181, 191, 201, 211, 221, 231, 241, 251, 261, 271, 281, 291, 301, 311, 321, 331, 341, 351, 361, 371, 381, 391, 401, 411, 421, 431, 441, 451, 461, 471, 481, 491, 501, 511, 521, 531, 541, 551, 561, 571, 581, 591, 601, 611, 621, 631, 641, 651, 661, 671, 681, 691, 701, 711, 721, 731, 741, 751, 761, 771, 781, 791, 801, 811, 821, 831, 841]","1061","1920","[960, 960, 960, 960, 960, 960, 960, 960, 960, 957, 940, 895, 865, 827, 781, 675, 623, 577, 538, 488, 463, 448, 434, 407, 393, 385, 378, 373, 372, 368, 365, 359, 354, 351, 347, 342, 338, 333, 323, 297, 274, 256, 235, 209, 199, 190, 182, 165, 158, 152, 146, 139, 138, 135, 135, 135, 135, 135, 135, 135, 135, 135, 135, 135, 135, 135, 135, 135, 135, 135, 135, 135, 135, 135, 135, 135, 135, 135, 135, 135, 135, 135, 135, 135]","[1010, 1010, 1010, 1010, 1010, 1010, 1010, 1010, 1010, 1007, 996, 943, 883, 805, 720, 512, 414, 326, 258, 158, 114, 80, 50, 4, 0, 0, 0, 0, 0, 0, 0, 0, 0, 0, 0, 0, 0, 0, 5, 16, 26, 33, 43, 54, 58, 61, 63, 64, 66, 66, 66, 66, 66, 66, 66, 66, 66, 66, 66, 66, 66, 66, 66, 66, 66, 66, 66, 66, 66, 66, 66, 66, 66, 66, 66, 66, 66, 66, 66, 66, 66, 66, 66, 66]"
"Trust","Teilnehmer A hat Ihnen 2 Punkte übermittelt.","Payback","1","undefined","18","0","6","60","1080","141","5","1","756","0","legacy","[11, 21, 31, 41, 51, 61, 71, 81, 91, 101, 111, 121, 131, 141, 151, 161, 171, 181, 191, 201, 211, 221, 231, 241, 251, 261, 271, 281, 291, 301, 311, 321, 331, 341, 351, 361, 371, 381, 391, 401, 411, 421, 431, 441, 451, 461, 471, 481, 491, 501, 511, 521, 531, 541, 551, 561, 571, 581, 591, 601, 611, 621, 631, 641, 651, 661, 671, 681, 691, 701, 711, 721, 731, 741, 751]","1061","1920","[960, 960, 960, 960, 960, 960, 960, 960, 960, 954, 946, 938, 928, 887, 854, 820, 779, 689, 643, 599, 553, 474, 435, 396, 364, 309, 288, 267, 254, 236, 230, 224, 220, 214, 211, 209, 209, 209, 209, 209, 209, 209, 209, 209, 209, 208, 208, 208, 208, 208, 208, 208, 208, 208, 208, 208, 208, 208, 208, 208, 208, 208, 208, 208, 208, 208, 208, 208, 208, 208, 208, 208, 208, 208, 208]","[1010, 1010, 1010, 1010, 1010, 1010, 1010, 1010, 1010, 1010, 1009, 999, 982, 880, 802, 723, 636, 485, 429, 378, 339, 275, 248, 221, 191, 143, 121, 104, 93, 74, 67, 59, 53, 45, 41, 39, 39, 39, 39, 39, 39, 39, 39, 39, 39, 38, 38, 38, 38, 38, 38, 38, 38, 38, 38, 38, 38, 38, 38, 38, 38, 38, 38, 38, 38, 38, 38, 38, 38, 38, 38, 38, 38, 38, 38]"
"Trust","Teilnehmer A hat Ihnen 2 Punkte übermittelt.","Payback","1","undefined","19","0","6","60","1080","261","5","1","1188","0","legacy","[11, 21, 31, 41, 51, 61, 71, 81, 91, 101, 111, 121, 131, 141, 151, 161, 171, 181, 191, 201, 211, 221, 231, 241, 251, 261, 271, 281, 291, 301, 311, 321, 331, 341, 351, 361, 371, 381, 391, 401, 411, 421, 431, 441, 451, 461, 471, 481, 491, 501, 511, 521, 531, 541, 551, 561, 571, 581, 591, 601, 611, 621, 631, 641, 651, 661, 671, 681, 691, 701, 711, 721, 731, 741, 751, 761, 771, 781, 791, 801, 811, 821, 831, 841, 851, 861, 871, 881, 891, 901, 911, 921, 931, 941, 951, 961, 971, 981, 991, 1001, 1011, 1021, 1031, 1041, 1051, 1061, 1071, 1081, 1091, 1101, 1111, 1121, 1131, 1141, 1151, 1161, 1171, 1181]","1061","1920","[960, 960, 960, 960, 960, 960, 960, 960, 960, 960, 960, 960, 960, 960, 960, 960, 960, 960, 960, 960, 960, 960, 959, 958, 953, 939, 923, 902, 871, 814, 774, 739, 702, 647, 622, 599, 579, 535, 510, 485, 460, 417, 402, 393, 387, 378, 375, 373, 372, 365, 361, 358, 355, 350, 349, 349, 348, 348, 348, 346, 345, 340, 337, 334, 330, 315, 309, 305, 299, 284, 276, 269, 262, 248, 243, 237, 232, 222, 218, 213, 210, 207, 207, 206, 206, 206, 204, 204, 204, 203, 203, 203, 203, 203, 203, 203, 203, 203, 203, 203, 203, 203, 203, 203, 203, 203, 203, 203, 203, 203, 203, 203, 203, 203, 203, 203, 203, 203]","[1010, 1010, 1010, 1010, 1010, 1010, 1010, 1010, 1010, 1010, 1010, 1010, 1010, 1010, 1010, 1010, 1010, 1010, 1010, 1010, 1010, 1009, 1004, 994, 982, 928, 875, 816, 751, 629, 564, 501, 450, 370, 343, 317, 294, 239, 210, 184, 157, 122, 111, 106, 101, 96, 93, 93, 91, 84, 79, 75, 74, 72, 72, 72, 72, 72, 72, 72, 72, 72, 72, 72, 73, 78, 80, 82, 85, 88, 88, 90, 90, 90, 90, 90, 90, 90, 90, 90, 89, 89, 89, 89, 89, 89, 89, 89, 89, 89, 89, 89, 89, 89, 89, 89, 89, 89, 89, 89, 89, 89, 89, 89, 89, 89, 89, 89, 89, 89, 89, 89, 89, 89, 89, 89, 89, 89]"
"Trust","Teilnehmer A hat Ihnen 2 Punkte übermittelt.","Payback","1","undefined","20","0","6","60","1080","301","5","1","1436","0","legacy","[11, 21, 31, 41, 51, 61, 71, 81, 91, 101, 111, 121, 131, 141, 151, 161, 171, 181, 191, 201, 211, 221, 231, 241, 251, 261, 271, 281, 291, 301, 311, 321, 331, 341, 351, 361, 371, 381, 391, 401, 411, 421, 431, 441, 451, 461, 471, 481, 491, 501, 511, 521, 531, 541, 551, 561, 571, 581, 591, 601, 611, 621, 631, 641, 651, 661, 671, 681, 691, 701, 711, 721, 731, 741, 751, 761, 771, 781, 791, 801, 811, 821, 831, 841, 851, 861, 871, 881, 891, 901, 911, 921, 931, 941, 951, 961, 971, 981, 991, 1001, 1011, 1021, 1031, 1041, 1051, 1061, 1071, 1081, 1091, 1101, 1111, 1121, 1131, 1141, 1151, 1161, 1171, 1181, 1191, 1201, 1211, 1221, 1231, 1241, 1251, 1261, 1271, 1281, 1291, 1301, 1311, 1321, 1331, 1341, 1351, 1361, 1371, 1381, 1391, 1401, 1411, 1421, 1431]","1061","1920","[960, 960, 960, 960, 960, 960, 960, 960, 960, 960, 960, 960, 960, 960, 960, 960, 960, 960, 960, 960, 960, 960, 960, 960, 957, 944, 938, 930, 922, 886, 856, 826, 787, 704, 659, 620, 579, 494, 460, 422, 392, 341, 326, 311, 297, 281, 274, 271, 267, 264, 264, 264, 264, 262, 261, 261, 260, 257, 255, 253, 253, 250, 248, 247, 246, 243, 240, 237, 237, 237, 237, 236, 236, 234, 234, 234, 233, 232, 232, 232, 232, 232, 232, 232, 232, 232, 232, 232, 232, 232, 232, 232, 232, 232, 232, 232, 232, 232, 232, 232, 232, 232, 232, 232, 232, 232, 232, 232, 232, 232, 232, 232, 232, 228, 223, 220, 214, 208, 205, 203, 201, 198, 197, 197, 197, 197, 197, 197, 197, 197, 197, 197, 197, 197, 197, 197, 197, 197, 197, 197, 197, 197, 197]","[1010, 1010, 1010, 1010, 1010, 1010, 1010, 1010, 1010, 1010, 1010, 1010, 1010, 1010, 1010, 1010, 1010, 1010, 1010, 1010, 1010, 1010, 1010, 1010, 1008, 997, 991, 983, 970, 917, 875, 833, 785, 678, 627, 582, 529, 425, 380, 332, 290, 218, 200, 182, 167, 152, 147, 145, 143, 141, 141, 141, 141, 140, 139, 139, 139, 139, 138, 137, 137, 136, 136, 136, 136, 136, 136, 136, 136, 136, 136, 136, 136, 136, 136, 136, 135, 135, 135, 135, 135, 135, 135, 135, 135, 135, 135, 135, 135, 135, 135, 135, 135, 135, 135, 135, 135, 135, 135, 135, 135, 135, 135, 135, 135, 135, 135, 135, 135, 135, 135, 135, 135, 130, 125, 123, 118, 111, 108, 107, 105, 102, 102, 102, 102, 102, 102, 102, 102, 102, 102, 102, 102, 102, 102, 102, 102, 102, 102, 102, 102, 102, 102]"
"Promise","Wie oft werden Sie die Hälfte zurückgeben?","Promise","1","undefined","20","0","7","60","1080","161","5","1","1264","0","legacy","[11, 21, 31, 41, 51, 61, 71, 81, 91, 101, 111, 121, 131, 141, 151, 161, 171, 181, 191, 201, 211, 221, 231, 241, 251, 261, 271, 281, 291, 301, 311, 321, 331, 341, 351, 361, 371, 381, 391, 401, 411, 421, 431, 441, 451, 461, 471, 481, 491, 501, 511, 521, 531, 541, 551, 561, 571, 581, 591, 601, 611, 621, 631, 641, 651, 661, 671, 681, 691, 701, 711, 721, 731, 741, 751, 761, 771, 781, 791, 801, 811, 821, 831, 841, 851, 861, 871, 881, 891, 901, 911, 921, 931, 941, 951, 961, 971, 981, 991, 1001, 1011, 1021, 1031, 1041, 1051, 1061, 1071, 1081, 1091, 1101, 1111, 1121, 1131, 1141, 1151, 1161, 1171, 1181, 1191, 1201, 1211, 1221, 1231, 1241, 1251, 1261]","1061","1920","[960, 960, 960, 960, 960, 960, 960, 960, 960, 960, 960, 960, 960, 960, 955, 932, 909, 872, 834, 747, 710, 685, 663, 639, 630, 623, 620, 611, 610, 608, 605, 604, 600, 593, 584, 552, 530, 507, 485, 446, 426, 408, 397, 353, 327, 300, 270, 213, 192, 180, 170, 160, 158, 158, 156, 156, 155, 153, 152, 148, 147, 147, 146, 146, 146, 146, 146, 146, 146, 146, 146, 146, 146, 146, 146, 146, 146, 146, 146, 146, 146, 146, 146, 146, 146, 146, 146, 146, 146, 146, 146, 146, 146, 146, 146, 146, 146, 146, 146, 146, 146, 146, 146, 146, 146, 146, 146, 146, 146, 146, 146, 146, 146, 146, 146, 146, 146, 146, 146, 146, 146, 146, 146, 146, 146, 146]","[1010, 1010, 1010, 1010, 1010, 1010, 1010, 1010, 1010, 1010, 1010, 1010, 1010, 1003, 974, 843, 752, 649, 552, 406, 359, 322, 299, 271, 260, 253, 249, 242, 242, 241, 241, 241, 241, 241, 241, 244, 244, 244, 244, 244, 244, 244, 239, 222, 212, 195, 177, 144, 135, 130, 124, 118, 117, 116, 115, 113, 109, 104, 98, 85, 82, 79, 78, 78, 78, 78, 78, 78, 78, 78, 78, 78, 78, 78, 78, 78, 78, 78, 78, 78, 78, 78, 78, 78, 78, 78, 78, 78, 78, 78, 78, 78, 78, 78, 78, 78, 78, 78, 78, 78, 78, 78, 78, 78, 78, 78, 78, 78, 78, 78, 78, 78, 78, 78, 78, 78, 78, 78, 78, 78, 78, 78, 78, 78, 78, 78]"
"Trust","Teilnehmer A hat Ihnen 2 Punkte übermittelt.","Payback","1","undefined","21","0","7","60","1080","151","5","1","1500","0","legacy","[11, 21, 31, 41, 51, 61, 71, 81, 91, 101, 111, 121, 131, 141, 151, 161, 171, 181, 191, 201, 211, 221, 231, 241, 251, 261, 271, 281, 291, 301, 311, 321, 331, 341, 351, 361, 371, 381, 391, 401, 411, 421, 431, 441, 451, 461, 471, 481, 491, 501, 511, 521, 531, 541, 551, 561, 571, 581, 591, 601, 611, 621, 631, 641, 651, 661, 671, 681, 691, 701, 711, 721, 731, 741, 751, 761, 771, 781, 791, 801, 811, 821, 831, 841, 851, 861, 871, 881, 891, 901, 911, 921, 931, 941, 951, 961, 971, 981, 991, 1001, 1011, 1021, 1031, 1041, 1051, 1061, 1071, 1081, 1091, 1101, 1111, 1121, 1131, 1141, 1151, 1161, 1171, 1181, 1191, 1201, 1211, 1221, 1231, 1241, 1251, 1261, 1271, 1281, 1291, 1301, 1311, 1321, 1331, 1341, 1351, 1361, 1371, 1381, 1391, 1401, 1411, 1421, 1431, 1441, 1451, 1461, 1471, 1481, 1491]","1061","1920","[960, 960, 960, 960, 960, 960, 960, 960, 960, 957, 953, 948, 946, 926, 911, 891, 866, 806, 774, 745, 711, 632, 598, 564, 540, 501, 493, 486, 482, 478, 476, 475, 474, 472, 471, 469, 465, 454, 443, 435, 427, 411, 404, 396, 386, 364, 348, 332, 315, 284, 270, 263, 257, 250, 248, 247, 245, 240, 235, 231, 224, 217, 215, 211, 208, 205, 205, 202, 202, 200, 198, 197, 196, 195, 195, 195, 195, 195, 195, 195, 195, 195, 195, 195, 195, 195, 195, 195, 195, 195, 195, 195, 195, 195, 195, 195, 195, 195, 195, 195, 195, 195, 195, 195, 195, 195, 195, 195, 195, 195, 195, 195, 195, 195, 195, 195, 195, 195, 195, 195, 195, 195, 195, 195, 195, 195, 195, 195, 195, 195, 195, 195, 195, 195, 195, 195, 195, 195, 195, 195, 195, 195, 195, 195, 195, 195, 195, 195, 195]","[1010, 1010, 1010, 1010, 1010, 1010, 1010, 1010, 1010, 1010, 1010, 1006, 997, 954, 920, 866, 810, 693, 633, 581, 526, 430, 388, 348, 314, 265, 254, 244, 239, 232, 229, 228, 226, 224, 223, 221, 218, 210, 204, 200, 196, 191, 190, 189, 188, 184, 180, 176, 171, 159, 154, 151, 148, 144, 143, 141, 140, 133, 127, 120, 112, 97, 92, 86, 81, 77, 76, 73, 73, 69, 67, 66, 65, 65, 65, 65, 65, 65, 65, 65, 65, 65, 65, 65, 65, 65, 65, 65, 65, 65, 65, 65, 65, 65, 65, 65, 65, 65, 65, 65, 65, 65, 65, 65, 65, 65, 65, 65, 65, 65, 65, 65, 65, 65, 65, 65, 65, 65, 65, 65, 65, 65, 65, 65, 65, 65, 65, 65, 65, 65, 65, 65, 65, 65, 65, 65, 65, 65, 65, 65, 65, 65, 65, 65, 65, 65, 65, 65, 65]"
"Trust","Teilnehmer A hat Ihnen 2 Punkte übermittelt.","Payback","1","undefined","22","0","7","60","1080","151","5","1","790","0","legacy","[11, 21, 31, 41, 51, 61, 71, 81, 91, 101, 111, 121, 131, 141, 151, 161, 171, 181, 191, 201, 211, 221, 231, 241, 251, 261, 271, 281, 291, 301, 311, 321, 331, 341, 351, 361, 371, 381, 391, 401, 411, 421, 431, 441, 451, 461, 471, 481, 491, 501, 511, 521, 531, 541, 551, 561, 571, 581, 591, 601, 611, 621, 631, 641, 651, 661, 671, 681, 691, 701, 711, 721, 731, 741, 751, 761, 771, 781]","1061","1920","[960, 960, 960, 960, 960, 960, 960, 960, 960, 960, 954, 947, 937, 926, 891, 869, 840, 802, 718, 665, 609, 546, 423, 355, 301, 256, 184, 165, 141, 130, 114, 109, 104, 102, 102, 102, 102, 102, 102, 102, 102, 102, 102, 101, 98, 98, 98, 98, 98, 98, 98, 98, 98, 98, 98, 98, 98, 98, 98, 98, 98, 98, 98, 98, 98, 98, 98, 98, 98, 98, 98, 98, 98, 98, 98, 98, 98, 98]","[1010, 1010, 1010, 1010, 1010, 1010, 1010, 1010, 1010, 1010, 1008, 997, 975, 941, 798, 718, 643, 566, 431, 367, 302, 234, 107, 48, 0, 0, 0, 0, 0, 0, 0, 0, 0, 0, 0, 0, 0, 0, 0, 0, 0, 0, 1, 13, 32, 49, 78, 87, 90, 91, 91, 91, 91, 91, 91, 91, 91, 91, 91, 91, 91, 91, 91, 91, 91, 91, 91, 91, 92, 92, 92, 92, 92, 92, 92, 92, 92, 92]"
"Trust","Teilnehmer A hat Ihnen 2 Punkte übermittelt.","Payback","0","undefined","23","0","7","60","1080","171","10","2","1092","0","legacy","[11, 21, 31, 41, 51, 61, 71, 81, 91, 101, 111, 121, 131, 141, 151, 161, 171, 181, 191, 201, 211, 221, 231, 241, 251, 261, 271, 281, 291, 301, 311, 321, 331, 341, 351, 361, 371, 381, 391, 401, 411, 421, 431, 441, 451, 461, 471, 481, 491, 501, 511, 521, 531, 541, 551, 561, 571, 581, 591, 601, 611, 621, 631, 641, 651, 661, 671, 681, 691, 701, 711, 721, 731, 741, 751, 761, 771, 781, 791, 801, 811, 821, 831, 841, 851, 861, 871, 881, 891, 901, 911, 921, 931, 941, 951, 961, 971, 981, 991, 1001, 1011, 1021, 1031, 1041, 1051, 1061, 1071, 1081, 1091]","1061","1920","[960, 960, 960, 960, 960, 960, 960, 960, 960, 960, 960, 960, 960, 960, 964, 981, 1010, 1082, 1123, 1166, 1205, 1284, 1325, 1366, 1404, 1474, 1498, 1522, 1538, 1568, 1577, 1585, 1588, 1590, 1590, 1590, 1590, 1590, 1590, 1595, 1596, 1602, 1605, 1607, 1608, 1611, 1614, 1619, 1626, 1650, 1668, 1684, 1704, 1738, 1750, 1759, 1765, 1774, 1775, 1777, 1778, 1778, 1778, 1778, 1778, 1778, 1778, 1778, 1778, 1778, 1778, 1778, 1778, 1778, 1778, 1778, 1778, 1778, 1778, 1777, 1776, 1775, 1775, 1773, 1773, 1772, 1772, 1772, 1772, 1772, 1772, 1772, 1772, 1772, 1772, 1772, 1772, 1772, 1772, 1772, 1772, 1772, 1772, 1772, 1772, 1772, 1772, 1772, 1772]","[1010, 1010, 1010, 1010, 1010, 1010, 1010, 1010, 1010, 1010, 1010, 1010, 1010, 1010, 1002, 967, 917, 794, 731, 675, 629, 548, 508, 462, 412, 334, 310, 288, 277, 252, 244, 237, 232, 229, 227, 225, 222, 212, 208, 201, 194, 182, 175, 170, 166, 159, 150, 140, 127, 98, 81, 67, 50, 25, 17, 11, 5, 0, 0, 0, 0, 0, 0, 0, 0, 0, 0, 0, 0, 0, 0, 0, 0, 0, 0, 0, 0, 0, 3, 6, 7, 11, 13, 15, 15, 17, 17, 17, 17, 17, 17, 17, 17, 17, 17, 17, 17, 17, 17, 17, 17, 17, 17, 17, 17, 17, 17, 17, 17]"
CHF,TotCHF,final_payoff,sum
"12.5","32.5","[10, 5, 5, 5]","25"
